Photodiode Viewing Angle (Degrees) - Plot 0	Lock-in Signal Amplitude (V) - Plot 0
-70.4988	1.43E-05
-69.9988	1.24E-05
-69.4988	1.19E-05
-68.9988	8.20E-06
-68.4989	8.75E-06
-67.9989	1.10E-05
-67.4989	9.00E-06
-66.9989	3.00E-06
-66.4991	7.69E-06
-65.9992	9.40E-06
-65.4989	7.84E-06
-64.9993	1.95E-06
-64.4994	4.73E-06
-63.9989	4.42E-06
-63.4989	6.65E-06
-62.9991	6.38E-06
-62.4991	3.95E-06
-61.9994	4.57E-06
-61.4989	5.88E-06
-60.9989	3.48E-06
-60.4989	4.43E-06
-59.9989	5.06E-06
-59.4989	4.36E-06
-58.9989	1.37E-06
-58.4989	1.86E-06
-57.9989	4.76E-07
-57.4989	1.36E-06
-56.9989	4.43E-06
-56.4989	2.27E-06
-55.9989	3.95E-06
-55.4989	4.95E-06
-54.9989	3.81E-06
-54.499	1.73E-06
-54.0001	5.10E-06
-53.499	3.53E-06
-52.999	5.74E-06
-52.499	1.50E-06
-51.999	2.54E-06
-51.499	9.70E-07
-50.999	3.35E-06
-50.499	3.20E-06
-49.999	3.18E-06
-49.499	2.24E-07
-48.999	4.26E-06
-48.499	3.95E-06
-47.999	8.22E-06
-47.499	1.78E-06
-46.999	1.09E-06
-46.499	3.98E-07
-45.999	2.42E-06
-45.499	2.96E-06
-44.999	9.49E-07
-44.499	2.92E-06
-43.999	1.86E-06
-43.499	2.57E-06
-42.9991	1.21E-06
-42.4991	2.00E-06
-41.9991	6.54E-07
-41.4991	1.48E-06
-40.9991	4.30E-06
-40.4991	1.26E-06
-39.9991	2.07E-06
-39.4991	2.70E-06
-38.9991	1.86E-06
-38.4991	1.51E-06
-37.9991	5.57E-06
-37.4991	3.33E-06
-36.9991	2.33E-06
-36.4992	3.43E-06
-35.9995	2.43E-06
-35.4991	2.77E-06
-34.9991	2.62E-06
-34.4991	2.30E-06
-33.9991	1.39E-06
-33.4991	2.82E-06
-32.9991	6.78E-07
-32.4991	8.28E-07
-31.9991	1.91E-06
-31.4991	3.28E-06
-30.9993	2.22E-06
-30.4991	1.71E-06
-29.9991	2.50E-06
-29.4992	1.05E-06
-28.9992	3.73E-06
-28.4992	2.21E-06
-27.9992	2.76E-06
-27.4992	2.83E-07
-26.9992	3.92E-07
-26.4992	2.11E-06
-25.9992	1.35E-06
-25.4992	2.29E-06
-24.9992	6.40E-07
-24.4992	1.63E-06
-23.9992	8.42E-07
-23.4992	1.14E-06
-22.9992	3.21E-06
-22.4992	4.01E-06
-21.9992	4.06E-06
-21.4992	2.12E-06
-20.9992	4.17E-06
-20.4992	2.60E-07
-19.9992	1.96E-06
-19.4992	3.79E-06
-18.9992	3.20E-06
-18.4992	2.79E-06
-17.9992	4.73E-07
-17.4992	2.89E-06
-16.9992	1.44E-06
-16.4993	4.13E-06
-15.9993	2.63E-06
-15.4993	1.79E-06
-14.9993	2.39E-06
-14.4993	4.04E-06
-13.9993	1.66E-06
-13.4993	2.60E-06
-12.9993	8.30E-07
-12.4993	1.51E-06
-11.9993	2.86E-06
-11.4993	1.70E-06
-10.9993	2.31E-06
-10.4993	3.40E-06
-9.99931	6.17E-07
-9.49931	1.06E-06
-8.99931	2.27E-06
-8.49931	2.42E-06
-7.99931	5.91E-07
-7.49932	1.67E-06
-6.99932	1.98E-06
-6.49934	1.10E-06
-5.99934	2.10E-06
-5.49934	7.83E-07
-4.99934	2.23E-06
-4.49934	7.19E-07
-3.99934	1.96E-06
-3.49935	1.95E-06
-2.99935	1.31E-06
-2.49935	2.36E-06
-1.99937	2.49E-06
-1.50008	2.43E-06
-0.999374	2.13E-06
-0.499374	2.90E-06
0.000617981	2.61E-06
0.500618	3.34E-06
1.00062	3.53E-06
1.50061	2.09E-06
2.0006	3.40E-06
2.5006	9.50E-07
3.0006	1.39E-06
3.50026	1.23E-07
4.00008	2.50E-06
4.49965	1.19E-06
4.99957	1.07E-06
5.49942	3.82E-06
5.99911	6.99E-07
6.50057	1.51E-06
6.99867	9.37E-07
7.50056	2.84E-06
8.00056	7.75E-07
8.50056	9.07E-07
9.00055	7.47E-07
9.50054	4.37E-07
10.0005	3.14E-06
10.5005	2.00E-06
11.0005	3.02E-06
11.4995	1.15E-06
12.0005	1.71E-06
12.5005	6.53E-07
13.0005	1.21E-06
13.5005	2.54E-06
14.0005	1.89E-06
14.5005	1.06E-06
15.0005	1.72E-06
15.5005	2.10E-06
16.0005	3.29E-06
16.5005	2.68E-06
17.0005	2.81E-06
17.5005	1.86E-06
17.999	4.18E-06
18.4991	3.07E-06
18.9987	1.48E-06
19.5005	5.21E-06
20.0005	4.98E-06
20.5005	5.26E-06
21.0005	1.91E-06
21.5005	2.73E-06
22.0005	2.12E-06
22.5004	5.10E-06
23.0004	1.29E-06
23.5004	5.57E-07
24.0004	1.04E-06
24.5004	2.04E-06
25.0004	3.61E-06
25.5004	2.12E-06
26.0004	1.64E-06
26.5004	3.23E-06
27.0004	1.43E-06
27.5004	1.79E-06
28.0004	2.08E-06
28.5004	2.18E-06
29.0004	1.99E-06
29.5004	2.14E-06
30.0004	1.82E-06
30.5004	1.32E-06
31.0004	5.09E-07
31.5004	2.26E-06
32.0004	2.64E-06
32.5004	1.51E-06
33.0004	1.35E-06
33.5004	2.35E-06
34.0004	2.71E-06
34.5004	1.67E-06
35.0003	5.63E-06
35.5003	1.42E-06
36.0003	2.22E-06
36.5003	2.15E-06
37.0003	2.57E-06
37.5003	4.96E-07
38.0003	3.45E-06
38.5003	3.73E-06
39.0003	2.65E-06
39.5003	1.02E-06
40.0003	2.70E-06
40.5003	9.71E-07
41.0003	2.09E-06
41.5003	2.92E-06
42.0003	2.43E-06
42.5003	7.73E-07
43.0003	1.26E-06
43.5003	2.12E-06
44.0003	1.40E-06
44.5003	1.05E-06
45.0003	4.51E-06
45.5003	3.92E-06
46.0003	4.12E-06
46.5003	1.45E-06
47.0003	2.02E-06
47.5003	1.33E-06
48.0002	1.36E-06
48.5	1.50E-06
48.9997	9.51E-07
49.4997	3.03E-06
50.0002	2.84E-06
50.5002	4.63E-06
51.0002	1.89E-06
51.5002	2.79E-06
52.0002	4.96E-06
52.5002	4.31E-06
53.0002	5.16E-06
53.5002	1.39E-06
54.0002	3.91E-06
54.5002	2.81E-06
55.0002	2.23E-06
55.5002	4.00E-06
56.0002	5.42E-06
56.5002	9.04E-07
57.0002	4.00E-06
57.5002	5.59E-06
58.0002	1.99E-06
58.5002	5.21E-06
59.0002	3.02E-06
59.5002	3.05E-06
60.0002	5.45E-06
60.5002	3.35E-06
61.0001	5.39E-06
61.5001	6.13E-06
62.0001	6.51E-06
62.5001	7.06E-06
63.0001	5.22E-06
63.5001	5.35E-06
64.0001	9.66E-06
64.5001	7.51E-06
65.0001	9.98E-06
65.5001	1.30E-05
66.0001	7.69E-06
66.5001	1.43E-05
66.9985	1.44E-05
67.5001	1.77E-05
68.0001	1.46E-05
68.5001	1.77E-05
69.0001	1.69E-05
69.5001	1.68E-05
70.0001	1.91E-05
70.5001	2.13E-05
71.0001	2.26E-05
71.5001	2.31E-05
72.0001	2.58E-05
72.5001	2.92E-05
73.0001	3.46E-05
73.5	3.43E-05
74	4.34E-05
74.5	5.37E-05
75	6.80E-05
75.5	8.61E-05
76	9.74E-05
76.5	0.000122667
77	0.000143767
77.5	0.00018108
78	0.000233651
78.5	0.000303151
79	0.000402095
79.5	0.000526194
80	0.000711087
80	0.00100649
-70.4988	0.000254931
-69.9988	0.000242502
-69.4988	0.000232012
-68.9988	0.000222147
-68.4989	0.000207127
-67.9989	0.000189246
-67.4989	0.000172646
-66.9989	0.000155331
-66.4989	0.000134216
-65.9989	0.000124135
-65.4989	0.000114084
-64.9989	0.000113741
-64.4989	0.000101023
-63.9989	9.55E-05
-63.4989	9.00E-05
-62.9996	8.47E-05
-62.4989	8.20E-05
-61.9989	7.45E-05
-61.4989	7.44E-05
-60.9989	6.78E-05
-60.4989	6.83E-05
-59.9989	5.85E-05
-59.4989	6.34E-05
-58.9989	5.73E-05
-58.4989	5.40E-05
-57.9989	5.26E-05
-57.4993	5.13E-05
-56.9989	4.85E-05
-56.4989	4.83E-05
-55.9989	4.56E-05
-55.4989	4.22E-05
-54.9989	4.00E-05
-54.499	3.89E-05
-53.999	3.59E-05
-53.499	3.49E-05
-52.999	3.82E-05
-52.499	3.46E-05
-51.999	3.15E-05
-51.499	2.76E-05
-50.999	2.93E-05
-50.499	3.04E-05
-49.999	2.69E-05
-49.499	2.78E-05
-48.999	2.35E-05
-48.499	2.23E-05
-47.999	2.22E-05
-47.499	2.35E-05
-46.999	2.58E-05
-46.499	2.69E-05
-45.999	2.76E-05
-45.499	2.66E-05
-44.999	2.81E-05
-44.499	2.98E-05
-43.999	3.05E-05
-43.499	3.01E-05
-42.9991	2.74E-05
-42.4991	2.75E-05
-41.9991	2.86E-05
-41.4991	2.79E-05
-40.9991	2.95E-05
-40.4991	3.03E-05
-39.9991	2.86E-05
-39.4991	3.20E-05
-38.9991	2.71E-05
-38.4991	2.88E-05
-37.9991	3.27E-05
-37.4991	3.35E-05
-36.9991	3.13E-05
-36.5008	3.47E-05
-35.9991	3.13E-05
-35.4991	2.91E-05
-34.9991	3.29E-05
-34.4991	3.27E-05
-33.9991	3.37E-05
-33.4991	3.10E-05
-32.9991	3.37E-05
-32.4991	3.30E-05
-31.9991	3.42E-05
-31.4991	3.48E-05
-30.9991	3.43E-05
-30.4991	3.26E-05
-29.9991	3.71E-05
-29.4992	3.25E-05
-28.9992	3.57E-05
-28.4992	3.36E-05
-27.9992	3.26E-05
-27.4995	3.58E-05
-26.9992	3.28E-05
-26.4992	3.57E-05
-25.9993	3.41E-05
-25.4993	3.20E-05
-24.9995	3.55E-05
-24.4995	3.49E-05
-23.9995	3.31E-05
-23.5001	3.22E-05
-22.9992	3.46E-05
-22.4992	3.39E-05
-21.9992	3.39E-05
-21.4992	3.36E-05
-20.9992	3.56E-05
-20.4992	3.55E-05
-19.9992	3.71E-05
-19.4992	3.70E-05
-18.9992	3.74E-05
-18.4992	3.37E-05
-17.9992	3.58E-05
-17.5012	3.41E-05
-16.9992	3.45E-05
-16.4993	3.35E-05
-15.9993	3.36E-05
-15.4993	3.47E-05
-14.9993	3.56E-05
-14.4993	3.33E-05
-13.9993	3.55E-05
-13.4993	3.54E-05
-12.9993	3.76E-05
-12.4993	3.49E-05
-11.9993	3.53E-05
-11.4993	3.65E-05
-10.9993	3.56E-05
-10.4993	3.42E-05
-9.99931	3.63E-05
-9.49931	3.60E-05
-8.99931	3.76E-05
-8.49931	3.96E-05
-7.99931	3.98E-05
-7.49932	3.80E-05
-6.99932	3.75E-05
-6.49934	3.61E-05
-5.99934	3.46E-05
-5.49934	3.70E-05
-4.99934	3.55E-05
-4.49934	3.85E-05
-3.99934	3.52E-05
-3.49962	3.79E-05
-2.99977	3.97E-05
-2.49935	4.00E-05
-1.99937	4.15E-05
-1.49937	3.69E-05
-0.999374	3.85E-05
-0.499374	3.99E-05
0.000617981	3.86E-05
0.500618	3.92E-05
1.00062	3.94E-05
1.50061	3.92E-05
2.0006	3.95E-05
2.5006	3.91E-05
3.0006	4.11E-05
3.5006	3.90E-05
4.00059	3.79E-05
4.50059	4.04E-05
5.00058	3.96E-05
5.50058	3.98E-05
6.00057	4.03E-05
6.50057	4.06E-05
7.00056	3.72E-05
7.50056	4.27E-05
8.00056	4.13E-05
8.50056	4.11E-05
9.00055	3.85E-05
9.50054	4.23E-05
10.0005	4.12E-05
10.5005	4.20E-05
11.0005	4.56E-05
11.5005	4.18E-05
12.0005	4.21E-05
12.5005	4.25E-05
13.0005	4.67E-05
13.5005	4.21E-05
14.0005	4.25E-05
14.5005	4.54E-05
15.0005	4.29E-05
15.5005	4.61E-05
16.0005	4.52E-05
16.5005	4.48E-05
17.0005	4.30E-05
17.5005	4.45E-05
18.0005	4.35E-05
18.5005	4.38E-05
19.0005	4.47E-05
19.4984	4.59E-05
20.0005	4.39E-05
20.5005	4.21E-05
21.0005	4.42E-05
21.5005	4.27E-05
22.0005	4.35E-05
22.5004	4.48E-05
23.0004	3.94E-05
23.4995	4.15E-05
24.0004	3.96E-05
24.5004	4.08E-05
25.0004	4.25E-05
25.5004	3.82E-05
26.0004	4.19E-05
26.5004	4.24E-05
27.0004	3.86E-05
27.5004	4.08E-05
28.0004	4.23E-05
28.5004	4.03E-05
29.0004	4.08E-05
29.5004	3.89E-05
30.0004	4.16E-05
30.5004	3.92E-05
31.0004	3.59E-05
31.5004	4.04E-05
32.0004	3.66E-05
32.5004	3.73E-05
33.0004	3.98E-05
33.5004	3.74E-05
34.0004	4.19E-05
34.5004	3.91E-05
35.0003	3.85E-05
35.5003	4.04E-05
36.0003	3.82E-05
36.5003	3.89E-05
37.0003	3.87E-05
37.5003	3.66E-05
38.0003	3.80E-05
38.5003	3.70E-05
39.0003	4.02E-05
39.5003	3.89E-05
40.0003	3.62E-05
40.5003	3.52E-05
41.0003	3.76E-05
41.5003	3.89E-05
42.0003	3.58E-05
42.5003	3.50E-05
42.9985	3.76E-05
43.5003	3.87E-05
44.0003	3.90E-05
44.5003	4.19E-05
45.0003	4.22E-05
45.5003	3.87E-05
46.0003	4.06E-05
46.5003	4.10E-05
47.0003	4.17E-05
47.5003	4.46E-05
48.0002	4.76E-05
48.5002	4.57E-05
49.0002	4.56E-05
49.5002	4.98E-05
50.0002	5.08E-05
50.5002	5.40E-05
51.0002	5.66E-05
51.5002	6.16E-05
52.0002	6.43E-05
52.5002	6.80E-05
53.0002	8.18E-05
53.5002	9.67E-05
54.0002	0.000110806
54.5002	0.000115812
55.0002	0.000126333
55.5002	0.000133933
56.0002	0.000146479
56.5002	0.000155897
57.0002	0.000170947
57.5002	0.000179322
58.0002	0.000184984
58.5002	0.000194193
59.0002	0.000201018
59.5002	0.000214786
60.0002	0.000220568
60.499	0.000232817
61.0001	0.000248076
61.5001	0.000262501
62.0001	0.000274302
62.5001	0.000298025
63.0001	0.00032294
63.5001	0.000362517
64.0001	0.000410559
64.5001	0.000455024
65.0001	0.000496391
65.5001	0.000536088
66.0001	0.000553731
66.5001	0.000579122
67.0001	0.00060213
67.5001	0.000622395
68.0001	0.000639085
68.5001	0.000661258
69.0001	0.000663523
69.5001	0.000636701
70.0001	0.000607494
70.5001	0.00057042
71.0001	0.000546221
71.5001	0.000515465
72.0001	0.000517253
72.5001	0.000540856
73.0001	0.000559453
73.5	0.000598196
74	0.000642423
74.5	0.000694875
75	0.000753406
75.5	0.000820164
76	0.000902656
76.5	0.000995405
77	0.0010922
77.5	0.00121785
78	0.00137163
78.5	0.00157071
79	0.00180627
79.5	0.00209977
80	0.0025623
80	0.00280644
-70.4988	0.000318768
-69.9988	0.000308963
-69.4988	0.000299336
-68.9988	0.000284376
-68.4989	0.000269266
-67.9989	0.000254633
-67.4989	0.000236721
-66.9989	0.000217826
-66.4989	0.000201494
-65.9997	0.000185014
-65.4989	0.000174255
-64.9989	0.000171662
-64.4989	0.000161053
-63.9989	0.000153766
-63.4989	0.000150413
-62.9989	0.000140005
-62.4989	0.000135989
-61.9989	0.000132942
-61.4989	0.000128613
-60.9989	0.000124731
-60.4989	0.000123837
-59.9989	0.000114874
-59.4989	0.000116587
-58.9989	0.000111759
-58.4989	0.000108853
-57.9989	0.00010442
-57.4989	0.000101679
-56.9989	9.95E-05
-56.4989	9.81E-05
-55.9989	9.47E-05
-55.4989	9.40E-05
-54.9989	9.28E-05
-54.499	9.08E-05
-53.999	8.92E-05
-53.499	8.62E-05
-52.999	8.07E-05
-52.499	8.13E-05
-51.999	8.26E-05
-51.499	7.85E-05
-50.999	7.36E-05
-50.499	7.59E-05
-49.999	7.36E-05
-49.499	7.08E-05
-48.999	6.94E-05
-48.499	6.99E-05
-47.999	6.52E-05
-47.4992	6.68E-05
-46.999	6.67E-05
-46.499	6.81E-05
-45.999	6.83E-05
-45.499	6.66E-05
-44.999	6.95E-05
-44.499	6.92E-05
-43.999	6.88E-05
-43.499	6.85E-05
-42.9991	6.69E-05
-42.4991	6.81E-05
-41.9991	6.24E-05
-41.4991	6.90E-05
-40.9991	6.56E-05
-40.4991	6.51E-05
-39.9991	6.47E-05
-39.4991	6.46E-05
-38.9991	6.37E-05
-38.4991	6.57E-05
-37.9991	6.35E-05
-37.4991	6.60E-05
-36.9991	6.23E-05
-36.4991	6.18E-05
-35.9991	6.46E-05
-35.4991	6.59E-05
-34.9991	6.41E-05
-34.4991	6.18E-05
-33.9991	6.40E-05
-33.4991	6.46E-05
-32.9991	6.29E-05
-32.4991	6.32E-05
-31.9991	6.41E-05
-31.4991	6.30E-05
-30.9991	6.38E-05
-30.4991	6.45E-05
-29.9991	6.11E-05
-29.4992	6.42E-05
-28.9992	6.41E-05
-28.4992	6.50E-05
-27.9992	6.48E-05
-27.4992	6.15E-05
-26.9992	6.10E-05
-26.4992	6.19E-05
-25.9992	6.46E-05
-25.4992	6.55E-05
-24.9992	6.29E-05
-24.4992	6.41E-05
-23.9992	6.32E-05
-23.4992	5.91E-05
-22.9992	6.37E-05
-22.4992	6.51E-05
-21.9992	6.34E-05
-21.4992	6.46E-05
-20.9992	6.26E-05
-20.4992	6.06E-05
-19.9992	6.46E-05
-19.4992	6.45E-05
-18.9992	6.25E-05
-18.4992	6.29E-05
-17.9992	6.29E-05
-17.4992	6.16E-05
-16.9992	6.33E-05
-16.4993	6.23E-05
-15.9993	6.40E-05
-15.4993	6.46E-05
-14.9993	6.52E-05
-14.4993	6.31E-05
-13.9993	6.14E-05
-13.4993	6.23E-05
-12.9993	6.52E-05
-12.4993	6.34E-05
-11.9993	6.24E-05
-11.4993	6.42E-05
-10.9993	6.45E-05
-10.4993	6.28E-05
-9.99931	6.39E-05
-9.49931	6.54E-05
-8.99931	6.47E-05
-8.49931	6.54E-05
-7.99931	6.62E-05
-7.49932	6.31E-05
-6.99932	6.48E-05
-6.49934	6.44E-05
-5.99934	6.90E-05
-5.49934	6.46E-05
-4.99934	7.03E-05
-4.49934	6.59E-05
-3.99934	6.80E-05
-3.49935	6.96E-05
-2.99935	6.55E-05
-2.49935	7.05E-05
-1.99937	6.84E-05
-1.49937	6.95E-05
-0.999374	6.70E-05
-0.499374	7.08E-05
0.000617981	7.03E-05
0.500618	7.13E-05
1.00062	7.15E-05
1.50061	6.95E-05
2.0006	7.13E-05
2.5006	7.21E-05
3.0006	7.24E-05
3.5006	7.26E-05
4.00059	7.51E-05
4.50059	7.32E-05
5.00058	7.30E-05
5.50058	7.09E-05
6.00057	6.96E-05
6.50057	7.12E-05
7.00056	7.37E-05
7.50056	7.36E-05
8.00056	7.58E-05
8.50056	7.84E-05
9.00055	7.56E-05
9.50054	7.77E-05
10.0005	7.74E-05
10.5005	7.66E-05
11.0005	7.92E-05
11.5005	7.81E-05
12.0005	7.34E-05
12.5005	8.03E-05
13.0005	7.67E-05
13.5005	7.77E-05
14.0005	7.90E-05
14.5005	8.09E-05
15.0005	8.19E-05
15.5005	7.94E-05
16.0005	7.81E-05
16.5005	8.24E-05
17.0005	8.29E-05
17.5005	8.15E-05
18.0005	7.88E-05
18.5005	8.34E-05
19.0005	8.16E-05
19.5005	8.00E-05
20.0005	7.61E-05
20.5005	8.35E-05
21.0005	8.17E-05
21.5005	8.11E-05
22.0005	8.07E-05
22.5004	8.06E-05
23.0004	8.01E-05
23.5004	8.16E-05
24.0004	8.08E-05
24.5004	7.49E-05
25.0004	7.72E-05
25.5004	7.47E-05
26.0004	7.73E-05
26.5004	7.45E-05
27.0004	7.12E-05
27.5004	7.39E-05
28.0004	7.16E-05
28.5004	6.99E-05
29.0004	6.87E-05
29.5004	6.85E-05
30.0004	7.00E-05
30.5004	6.59E-05
31.0004	6.53E-05
31.5004	6.77E-05
32.0004	6.54E-05
32.5004	6.41E-05
33.0004	6.66E-05
33.5004	6.52E-05
34.0004	6.85E-05
34.5004	6.39E-05
35.0003	6.51E-05
35.5003	6.85E-05
36.0003	6.42E-05
36.5003	6.39E-05
37.0003	6.13E-05
37.5003	6.12E-05
38.0003	5.93E-05
38.4997	6.18E-05
39.0003	6.18E-05
39.5003	6.23E-05
40.0003	5.91E-05
40.5003	6.16E-05
41.0003	6.26E-05
41.5003	5.97E-05
42.0003	5.79E-05
42.5003	5.66E-05
43.0003	5.76E-05
43.5003	5.87E-05
44.0003	5.71E-05
44.5003	5.53E-05
45.0003	5.45E-05
45.5003	5.57E-05
46.0003	5.67E-05
46.5003	5.45E-05
47.0003	5.49E-05
47.5003	5.50E-05
48.0002	5.63E-05
48.5002	5.99E-05
49.0002	5.85E-05
49.5002	5.60E-05
50.0002	5.88E-05
50.5002	5.87E-05
51.0002	6.16E-05
51.5002	6.22E-05
52.0002	6.70E-05
52.5002	7.15E-05
53.0002	8.60E-05
53.5002	0.000102401
54.0002	0.00011009
54.5002	0.000115991
55.0002	0.000125618
55.5002	0.000133635
56.0002	0.000142516
56.5002	0.000158728
57.0002	0.000165344
57.5002	0.000174583
58.0002	0.000183136
58.5002	0.000194103
59.0002	0.000195206
59.5002	0.000207187
60.0002	0.000216306
60.5002	0.000229985
61.0001	0.000236244
61.5001	0.000249447
62.0001	0.00026715
62.5001	0.000289025
63.0001	0.000314774
63.5001	0.000355901
64.0001	0.000400962
64.5001	0.000444831
65.0001	0.000483694
65.5001	0.000516776
65.9994	0.000537936
66.5001	0.000559215
67.0001	0.00058097
67.5001	0.000601117
68.0001	0.000619773
68.5001	0.000635568
69.0001	0.000631157
69.5001	0.000607792
70.0001	0.000582103
70.5001	0.00055081
71.0001	0.000524286
71.5001	0.000507299
72.0001	0.000511531
72.5001	0.000537518
73.0001	0.000561003
73.5	0.00059307
74	0.000640277
74.497	0.00069249
74.9957	0.000754002
75.5	0.000829462
76	0.000913266
76.5	0.00101209
77	0.00111938
77.5	0.00124741
78	0.00143362
78.5	0.00164772
79	0.00192667
79.5	0.00234057
79.9988	0.00294496
80	0.00362946
