Photodiode Viewing Angle (Degrees) - Plot 0	Lock-in Signal Amplitude (V) - Plot 0
-40.499	0.000220538
-39.9993	0.000217141
-39.499	0.000214697
-38.999	0.000214339
-38.499	0.000213207
-37.999	0.000211478
-37.499	0.000210882
-36.999	0.000211776
-36.499	0.000208975
-35.999	0.000211001
-35.499	0.000211001
-34.999	0.000207365
-34.499	0.000206233
-33.999	0.000207246
-33.4995	0.00020671
-32.999	0.000209094
-32.4991	0.000207544
-31.9991	0.000208081
-31.4991	0.00020969
-30.9991	0.00020814
-30.4991	0.000206829
-29.9991	0.000213088
-29.4991	0.000212909
-28.9991	0.000211776
-28.4991	0.00021577
-27.9991	0.000218333
-27.4991	0.000218035
-26.9991	0.000221015
-26.4991	0.000225903
-25.9991	0.000227214
-25.4991	0.000230611
-24.9991	0.000231684
-24.4991	0.00023234
-23.9991	0.000240506
-23.4991	0.000246109
-22.9991	0.000250103
-22.4991	0.000255646
-21.9991	0.000258388
-21.4991	0.000266375
-20.9991	0.00027472
-20.4991	0.000283243
-19.9992	0.000284733
-19.4992	0.000290157
-18.9992	0.000290873
-18.4992	0.000291111
-17.9992	0.000291111
-17.4992	0.000292005
-16.9992	0.000293197
-16.4992	0.000294151
-15.9992	0.000291349
-15.4992	0.00029278
-14.9992	0.00028968
-14.4994	0.000286939
-13.9992	0.000284376
-13.4992	0.000278058
-12.9992	0.000275197
-12.4992	0.000272037
-11.9992	0.000268998
-11.4993	0.000269951
-10.9992	0.000268461
-10.4992	0.000264348
-9.99923	0.00026268
-9.49923	0.000259163
-8.99923	0.000257911
-8.49924	0.000254454
-7.99924	0.000253798
-7.49925	0.000251355
-6.99925	0.000246765
-6.49925	0.000247719
-5.99926	0.000247361
-5.49949	0.000244082
-4.99926	0.000244202
-4.49927	0.000240088
-3.99927	0.000239194
-3.49927	0.000238539
-2.99928	0.0002383
-2.49928	0.000234903
-1.99929	0.000239075
-1.49929	0.000236393
-0.99929	0.000234724
-0.499298	0.000234605
0.000701904	0.000234366
0.500694	0.000230373
1.00069	0.000234605
1.50068	0.000235141
2.00068	0.000232757
2.50068	0.000233294
3.00067	0.000231505
3.50067	0.00023383
4.00067	0.000235797
4.50066	0.000232936
5.00047	0.000236393
5.50065	0.000235201
6.00065	0.000237287
6.50065	0.000236631
7.00064	0.000239433
7.50064	0.000239135
8.00064	0.000240088
8.50063	0.000239016
9.00063	0.000240744
9.50062	0.000240386
10.0006	0.000240506
10.5006	0.000243844
11.0006	0.000245275
11.5006	0.000243546
12.0006	0.000245931
12.5006	0.000248017
13.0006	0.000244858
13.5006	0.000255587
14.0006	0.000267627
14.5006	0.000269832
15.0006	0.000275912
15.5006	0.000275793
16.0006	0.000274839
16.5006	0.000270369
17.0006	0.00026113
17.5006	0.000256242
18.0006	0.00025654
18.5005	0.000257136
19.0005	0.000257732
19.5005	0.000260474
20.0005	0.000263574
20.5	0.000266375
21.0005	0.000272335
21.5005	0.000275375
22.0005	0.000276567
22.5005	0.000282587
23.0005	0.000284137
23.5005	0.00028831
24.0005	0.000287475
24.5005	0.000292124
25.0005	0.000293674
25.5005	0.000296773
26.0005	0.000301959
26.5005	0.000301125
26.9992	0.000306906
27.5005	0.000304999
28.0005	0.000309648
28.5005	0.000312092
29.0005	0.000315847
29.5005	0.000323238
30.0005	0.00032437
30.5002	0.000330867
31.0005	0.00033796
31.5005	0.000340821
32.0005	0.000349225
32.5004	0.000352921
33.0004	0.000363173
33.5004	0.000369908
34.0004	0.000374259
34.5004	0.000386002
35.0004	0.000394167
35.5004	0.00040883
36.0004	0.000415446
36.5004	0.000428202
36.9992	0.000436129
37.5004	0.000453057
38.0004	0.000459792
38.5004	0.000477614
39.0004	0.000493411
39.5004	0.000509027
40.0004	0.000523511
40.5002	0.000543181
41.0004	0.000567023
41.5004	0.000585023
42.0004	0.000615839
42.5004	0.000638966
43.0004	0.000670437
43.5004	0.000705961
44.0004	0.000741009
44.5004	0.000779156
45.0003	0.000818018
45.5003	0.000861887
46.0003	0.000909571
46.5003	0.000968222
47.0003	0.00103045
47.5003	0.00109888
48.0003	0.00117589
48.5003	0.00125623
49.0003	0.00135184
49.5003	0.00145674
50.0003	0.00157238
50.5003	0.00169397
51.0003	0.00183702
51.5003	0.00200845
51.9993	0.00220491
52.5003	0.00242139
53.0003	0.00267221
53.5003	0.00294591
54.0003	0.00324823
54.5003	0.00358488
55.0003	0.00397113
55.5	0.00436214
56.0003	0.00482276
56.5003	0.00535968
57.0003	0.00597671
57.5003	0.00666621
58.0002	0.00743964
58.5002	0.00834471
59.0002	0.00936323
59.5002	0.0105038
60.0002	0.0118399
60.5002	0.0133391
61.0002	0.0149289
61.5002	0.0165559
62.0002	0.0184556
62.499	0.0206109
63.0002	0.022976
63.5002	0.0255433
64.0002	0.0283433
64.5002	0.0314372
65.0002	0.0345347
65.5002	0.0380023
65.9997	0.0415118
66.5002	0.0448534
67.0002	0.0485156
67.5002	0.0520213
68.0002	0.055321
68.5002	0.0585139
69.0002	0.0616152
69.5002	0.0646977
70.0002	0.067616
70.5001	0.0705724
71.0001	0.0735402
71.5001	0.0766988
72.0001	0.0798345
72.4994	0.0828099
73.0001	0.0858464
73.5001	0.0896153
74.0001	0.093102
74.5001	0.0968862
75.0001	0.100922
75.5001	0.105652
76.0001	0.110154
76.5001	0.114335
77.0001	0.118195
77.5001	0.121369
78.0001	0.124535
78.5001	0.128098
79.0001	0.130769
79.5001	0.133119
80.0001	0.136659
80.5001	0.139009
81.0001	0.140473
81.5001	0.139863
82.0001	0.139466
82.5001	0.137605
83.0001	0.134156
83.5	0.130006
84	0.124451
84.5	0.118165
84.9968	0.107361
85.5	0.0932622
86	0.0758672
86.5	0.0582888
87	0.040745
87.5	0.0253602
88	0.0137883
88.5	0.00665715
89	0.00305606
89.5	0.00139571
90	0.000803594
90	0.000725511
-40.499	0.000109226
-39.999	0.000109971
-39.499	0.00011015
-38.999	0.00011012
-38.499	0.000106663
-37.999	0.000105113
-37.499	0.000109107
-36.9996	0.000106246
-36.499	0.000107676
-35.999	0.000107468
-35.499	0.000106186
-34.999	0.000103772
-34.499	0.000104815
-33.999	0.000105918
-33.499	0.000106156
-32.999	0.00010553
-32.4991	0.000106425
-31.9991	0.00010866
-31.4991	0.000106723
-30.9991	0.000106603
-30.4991	0.000110299
-29.9991	0.000107855
-29.4991	0.000109882
-28.9991	0.000110656
-28.4991	0.00011015
-27.9991	0.000112772
-27.4991	0.000111849
-27	0.000112385
-26.4991	0.000112087
-25.9991	0.000113547
-25.4991	0.00011471
-24.9991	0.00011769
-24.4991	0.000118465
-23.9991	0.000119865
-23.4991	0.000120879
-22.9991	0.000124247
-22.4991	0.000124664
-21.9991	0.000128866
-21.4991	0.000127853
-20.9991	0.000130237
-20.4991	0.000133486
-19.9992	0.000135184
-19.4992	0.000135631
-18.9992	0.000136525
-18.4992	0.000137747
-17.9992	0.000139476
-17.4992	0.000141651
-16.9997	0.000140727
-16.4992	0.000140459
-15.9992	0.000141651
-15.4992	0.000140638
-14.9992	0.000139088
-14.4992	0.000138351
-13.9992	0.000139543
-13.4992	0.000138515
-12.9992	0.000136749
-12.4992	0.000135601
-11.9992	0.00013514
-11.4992	0.000136786
-10.9992	0.000137941
-10.4992	0.000134439
-9.99923	0.000135251
-9.49923	0.00013353
-8.99923	0.000134625
-8.49924	0.000134715
-7.99924	0.000130781
-7.49925	0.000130401
-6.9996	0.000133158
-6.49925	0.000129395
-5.99926	0.000129127
-5.49926	0.000126221
-4.99926	0.00012722
-4.49927	0.000128278
-3.99927	0.000123114
-3.49931	0.00012748
-2.99928	0.000125193
-2.49928	0.00012383
-1.99929	0.000127398
-1.49929	0.000124262
-0.99929	0.000124858
-0.499298	0.000125268
0.000701904	0.000124478
0.500694	0.000124768
1.00069	0.000126862
1.50068	0.000125692
2.00068	0.00012567
2.50068	0.000126944
3.00024	0.000125655
3.50067	0.000127391
4.00067	0.000129574
4.50066	0.000125528
5.00066	0.000128166
5.50065	0.000127831
6.00065	0.000125513
6.50065	0.000127309
7.00064	0.000128978
7.50064	0.000126191
8.00064	0.000128002
8.50063	0.00012938
9.00063	0.000130259
9.50062	0.000130453
10.0006	0.0001302
10.5006	0.000131608
11.0006	0.000133992
11.5006	0.000133158
12.0006	0.000132286
12.5006	0.000134052
12.9999	0.000133486
13.5006	0.000137509
14.0006	0.000141733
14.5006	0.000141353
15.0006	0.000143395
15.5006	0.000143484
16.0006	0.000141003
16.5006	0.000144475
17.0006	0.000139863
17.5006	0.000141517
18.0006	0.000141189
18.5005	0.000138321
19.0005	0.000138902
19.499	0.000141256
20.0005	0.000140154
20.5005	0.000145906
21.0005	0.000145935
21.5005	0.000144706
22.0005	0.000149027
22.5005	0.000150234
23	0.000156135
23.5005	0.00015545
24.0005	0.000154496
24.5005	0.000155927
25.0005	0.000159145
25.5005	0.00015998
26.0005	0.000160695
26.5005	0.000162245
27.0005	0.000165821
27.5005	0.000165821
28.0005	0.000167967
28.5005	0.000171543
29.0005	0.000171424
29.5005	0.000171066
30.0005	0.000176311
30.5005	0.000179411
31.0005	0.000178576
31.5005	0.00018561
32.0005	0.000187517
32.5004	0.000191451
33.0004	0.000197412
33.5004	0.000200273
33.9995	0.000203014
34.5004	0.000211597
35.0004	0.000211359
35.5004	0.000218631
36.0004	0.000223757
36.5004	0.000230194
37.0004	0.000238777
37.5004	0.000243903
38.0004	0.000251533
38.5004	0.000255587
39.0004	0.000267031
39.5004	0.000277998
40.0004	0.000287535
40.5004	0.000296356
41.0004	0.000309231
41.5004	0.000321748
42.0004	0.000337603
42.5004	0.000354173
43.0004	0.000368239
43.5004	0.000386478
44.0004	0.000405671
44.4994	0.000431301
45.0003	0.00045109
45.5003	0.000478031
46.0003	0.000504259
46.5003	0.000536326
47.0003	0.000572685
47.5003	0.000609759
48.0003	0.00065184
48.5003	0.000694755
49.0003	0.00074685
49.5003	0.000800733
50.0003	0.00086594
50.5003	0.000926737
51.0003	0.00100804
51.5003	0.00109518
52.0003	0.00119627
52.5003	0.00130988
53.0003	0.00143791
53.5003	0.0015812
54.0003	0.0017376
54.5003	0.00191117
54.9999	0.0020981
55.5003	0.00230409
56.0003	0.00253297
56.5003	0.00279619
56.9988	0.00308992
57.5003	0.00342943
58.0002	0.00381853
58.5002	0.00426868
59.0002	0.00476459
59.5002	0.00533298
60.0002	0.00597766
60.5002	0.0067139
61.0002	0.00746921
61.5002	0.00827032
62.0002	0.00917059
62.5002	0.0102082
63.0002	0.0113793
63.5002	0.0126458
64.0002	0.0139886
64.5002	0.0155221
65.0002	0.0170823
65.5002	0.0188447
66.0002	0.0206758
66.5002	0.0224687
67.0002	0.0244027
67.5002	0.0262872
68.0002	0.0281183
68.5002	0.0298959
69.0002	0.0316813
69.5002	0.0334399
69.9997	0.035126
70.5001	0.0367053
71.0001	0.0384676
71.5001	0.040108
72.0001	0.0418208
72.5001	0.0434458
73.0001	0.045151
73.5001	0.0471613
74.0001	0.0492213
74.5001	0.0510333
75.0001	0.0534213
75.5001	0.0559008
75.9997	0.0582926
76.5001	0.0602076
77.0001	0.062443
77.5001	0.0641675
78.0001	0.0659261
78.5001	0.0676312
79.0001	0.0693059
79.4999	0.0709462
80.0001	0.0727849
80.5001	0.0740781
81.0001	0.0746388
81.5001	0.0742154
82.0001	0.0737233
82.5001	0.0724645
83.0001	0.0707326
83.5	0.0682569
84	0.0653195
84.5	0.0615199
85	0.0553973
85.5	0.0476534
86	0.0385668
86.5	0.0290529
87	0.0199949
87.5	0.0123931
88	0.00663665
88.5	0.00325729
89	0.00150526
89.5	0.000704471
89.9971	0.000415387
90	0.000377955
