Photodiode Viewing Angle (Degrees) - Plot 0	Lock-in Signal Amplitude (V) - Plot 0
-14.9991	0.00373317
-14.4991	0.0038581
-13.9991	0.00393108
-13.4991	0.00371982
-12.9991	0.00340082
-12.4991	0.00304081
-11.9991	0.00261308
-11.4991	0.00244237
-10.9991	0.00235845
-10.4991	0.0022998
-9.99915	0.00225832
-9.49915	0.00222637
-9.00065	0.00219442
-8.50112	0.00216915
-8.0015	0.00213958
-7.49916	0.00211622
-6.99916	0.00210144
-6.49917	0.00207902
-5.99918	0.00206853
-5.49918	0.00205614
-4.99918	0.00204374
-4.49919	0.00203516
-3.99919	0.00202371
-3.49919	0.00201465
-2.9992	0.00200845
-2.4992	0.00200321
-1.99921	0.00200273
-1.49921	0.00199176
-0.999214	0.00199081
-0.499222	0.0019808
0.000778198	0.00197507
0.500748	0.00196745
1.00077	0.00196458
1.50077	0.00196268
2.00077	0.00196506
2.50076	0.00196077
3.00076	0.00195075
3.50075	0.00194741
4.00075	0.0019455
4.50075	0.00193978
5.00074	0.00193549
5.50074	0.00193215
6.00073	0.00193644
6.50072	0.00193311
7.00072	0.00193597
7.50072	0.00193215
8.00072	0.0019312
8.50047	0.00193263
9.00071	0.00193072
9.50071	0.00192643
10.0007	0.001925
10.5007	0.00192214
11.0007	0.00191642
11.5007	0.00192023
12.0007	0.00192166
12.5007	0.00191928
13.0007	0.00191785
13.5007	0.00192118
14.0007	0.0019188
14.5007	0.00191546
15.0007	0.0019188
15.5007	0.00191403
16.0006	0.00191689
16.5006	0.00192261
17.0004	0.00192691
17.5006	0.00192977
18.0006	0.00193358
18.5006	0.00194073
19.0006	0.00193787
19.5006	0.00194169
20.0006	0.00194169
20.5006	0.00194407
21.0006	0.00195743
21.5006	0.00196745
22.0006	0.001987
22.5006	0.00199367
23.0006	0.00200941
23.5006	0.0020199
24.0006	0.00203611
24.5006	0.00204946
25.0006	0.00206806
25.5006	0.00209571
26.0006	0.00212146
26.5006	0.00214054
27.0006	0.00215341
27.5006	0.00217582
28.0006	0.00219442
28.5006	0.00221445
29	0.00222827
29.5	0.00223686
30.0005	0.00224353
30.5005	0.00225641
31.0005	0.00227405
31.5005	0.00229074
32.0005	0.00230123
32.5005	0.00232174
33.0005	0.0023203
33.5005	0.00231649
34.0005	0.00230743
34.5005	0.00229503
34.9999	0.00229026
35.5005	0.00228168
36.0005	0.00226451
36.5005	0.00224544
37.0005	0.00223447
37.5005	0.00221349
38.0005	0.0021887
38.5005	0.00215484
39.0005	0.00213625
39.5005	0.00210287
40.0005	0.00208475
40.5005	0.00205709
41.0005	0.00202753
41.5005	0.00200464
42.0005	0.00197555
42.5005	0.00193978
43.0004	0.00189257
43.5004	0.00184775
44.0004	0.00179673
44.5004	0.00175143
45.0004	0.00170661
45.499	0.00167275
46.0004	0.0016389
46.5004	0.00160218
47.0004	0.00157548
47.5004	0.00154782
48.0004	0.00153018
48.5004	0.00150395
49.0004	0.00147486
49.5004	0.00144482
50.0004	0.00141955
50.5004	0.0013938
51.0004	0.00136615
51.5004	0.00133849
52.0004	0.00131322
52.5004	0.00129224
53.0004	0.00126839
53.5004	0.00124026
54.0004	0.00121499
54.5004	0.00119401
55.0004	0.00117589
55.5003	0.001153
56.0003	0.00113011
56.5003	0.00111151
57.0003	0.00109006
57.5003	0.00107432
57.9995	0.00105811
58.4998	0.00103665
59.0001	0.00102425
59.5003	0.00100852
59.9991	0.000988968
60.5003	0.000967506
61.0003	0.00095034
61.5003	0.000931267
62.0003	0.000912193
62.5003	0.000898365
63.0003	0.000878815
63.5002	0.000859741
64.0003	0.000843052
64.5003	0.000826839
65.0003	0.000808243
65.5003	0.000792507
66.0003	0.000771526
66.5003	0.000761513
67.0003	0.000738148
67.5003	0.000721935
68.0002	0.000705246
68.5002	0.000686172
69.0002	0.00066996
69.5002	0.00065041
70.0002	0.000634197
70.5002	0.000612739
71.0002	0.000596527
71.5002	0.000576977
72.0002	0.000561241
72.5002	0.000546936
73.0002	0.000537876
73.5002	0.000521187
74.0002	0.000507835
74.5002	0.000491623
75.0002	0.000476362
75.5002	0.000456335
76.0002	0.000443937
76.5002	0.000427248
77.0002	0.00041485
77.5002	0.000396254
78.0002	0.000378611
78.5002	0.000368597
79.0002	0.000355722
79.5002	0.000335218
80.0002	0.000320913
80.5002	0.000313284
81.0001	0.000296118
81.5001	0.000281813
82.0001	0.000268461
82.5001	0.000253679
83.0001	0.000238896
83.5001	0.000226022
84.0001	0.000212193
84.5001	0.000200273
85.0001	0.000188828
85.5001	0.000172139
86.0001	0.00015688
86.5001	0.000140191
87.0001	0.000127316
87.5001	0.000118733
88.0001	0.000107289
88.5001	0.000107766
89.0001	0.000107766
89.5001	0.000103474
90.0001	0.000107289
90.5001	0.000106335
91.0001	0.000105381
91.5001	0.000101567
92.0001	0.000101567
92.5001	0.00010252
93.0001	0.000104905
93.5001	0.000101567
94	0.000101567
94.5	9.82E-05
95	9.87E-05
95.5	9.92E-05
96	9.82E-05
96.5	9.49E-05
97	9.49E-05
97.5	9.63E-05
98	9.63E-05
98.5	9.11E-05
99	9.68E-05
99.5	9.82E-05
100	9.35E-05
100	9.97E-05
