Photodiode Viewing Angle (Degrees) - Plot 0	Lock-in Signal Amplitude (V) - Plot 0
-14.9991	0.00293876
-14.4991	0.00299121
-13.9991	0.00296451
-13.4991	0.00273038
-12.9991	0.00247718
-12.4991	0.0022731
-11.9991	0.00214483
-11.4991	0.00208761
-10.9991	0.00205757
-10.4991	0.00203229
-9.99915	0.00201608
-9.49915	0.00200082
-8.99915	0.00199272
-8.49915	0.00198366
-7.99916	0.0019746
-7.49916	0.00196697
-6.99916	0.00196172
-6.49917	0.00196029
-5.99918	0.00195552
-5.49918	0.00195314
-4.99918	0.00195409
-4.49919	0.00194979
-3.99919	0.00195123
-3.49919	0.00194455
-2.9992	0.00193883
-2.4992	0.0019436
-1.99921	0.00194073
-1.49921	0.00194217
-0.999275	0.00194407
-0.5	0.00194741
0.00062561	0.00194884
0.500778	0.0019517
1.00077	0.00195075
1.50077	0.00194884
2.00077	0.0019455
2.50076	0.00194026
3.00076	0.00194264
3.50075	0.00194693
4.00075	0.00194693
4.50075	0.00194741
5.00074	0.00194979
5.50074	0.00195027
6.00073	0.00194407
6.50072	0.00194073
7.00072	0.00194264
7.50072	0.00194217
8.00072	0.00194455
8.50071	0.00194169
9.00071	0.00194503
9.50071	0.00194169
10.0007	0.00194503
10.5007	0.00194169
11.0007	0.00194407
11.5007	0.0019374
12.0007	0.00193597
12.5007	0.00193311
13.0007	0.00192548
13.5007	0.00192452
14.0007	0.00192214
14.5007	0.00192214
15.0007	0.00192166
15.5007	0.00191975
16.0006	0.0019188
16.5006	0.00191546
17.0006	0.00191165
17.5006	0.00190783
18.0006	0.0019002
18.5006	0.00190306
18.9995	0.00189687
19.5006	0.00189544
20.0006	0.00189305
20.5006	0.00189544
21.0006	0.00188685
21.5006	0.00187684
22.0006	0.0018735
22.5006	0.00186444
23.0006	0.00185443
23.5006	0.00185395
24.0006	0.00184871
24.5006	0.00184918
25.0006	0.00184871
25.5006	0.00184584
26.0006	0.00183869
26.5006	0.00183345
27.0006	0.00181914
27.5006	0.00181199
28.0005	0.0018158
28.5006	0.00181342
29.0005	0.00180817
29.5005	0.00180484
30.0005	0.00180293
30.5005	0.00179101
31.0005	0.00178624
31.5005	0.0017829
32.0005	0.00177718
32.5005	0.0017705
33.0005	0.0017624
33.5005	0.00175954
34.0005	0.00174809
34.5005	0.00174142
35.0005	0.00174189
35.5005	0.00173045
36.0005	0.00172854
36.5005	0.0017233
37.0005	0.00171185
37.5005	0.00170279
38.0005	0.00168896
38.4985	0.00168324
39.0005	0.00166846
39.5005	0.00165797
40.0005	0.00164653
40.5005	0.00163651
41.0005	0.00162936
41.5005	0.00161935
42.0005	0.00160981
42.5005	0.00159121
43.0004	0.00158263
43.5004	0.00157119
44.0004	0.00156689
44.5004	0.00155593
45.0004	0.00155211
45.5004	0.00154115
46.0004	0.00153304
46.5004	0.00151492
47.0004	0.00149823
47.5004	0.00148536
48.0004	0.0014701
48.5004	0.0014515
49.0004	0.00143672
49.5004	0.0014186
50.0004	0.00140811
50.5004	0.00139571
51.0004	0.00138045
51.5004	0.00136758
52.0004	0.00135566
52.5004	0.00134278
53.0004	0.00132657
53.5004	0.00130749
53.9999	0.00129319
54.5004	0.00128175
55.0004	0.00125838
55.5003	0.00124646
56.0003	0.00123025
56.5003	0.00121547
57.0003	0.0011983
57.5003	0.0011735
58.0003	0.00116111
58.5003	0.00114013
59.0003	0.00112582
59.5003	0.00110818
60.0003	0.00109006
60.4996	0.00106383
61.0003	0.00104285
61.5003	0.0010233
62.0003	0.00100852
62.5003	0.000979908
63.0003	0.000959877
63.5003	0.000940327
64.0003	0.000920299
64.5003	0.000890259
65.0003	0.000863079
65.5003	0.000835899
66.0003	0.000811581
66.5003	0.000784878
67.0003	0.00075293
67.5003	0.000721935
68.0002	0.000690941
68.5002	0.000657562
69.0002	0.000622753
69.5002	0.000589851
70.0002	0.000554565
70.5002	0.000521664
71.0002	0.000487329
71.5002	0.000450613
72.0002	0.000416281
72.5002	0.000381948
73.0002	0.000350954
73.5002	0.000326158
74.0002	0.000298979
74.5002	0.000277998
75.0002	0.000255587
75.5002	0.000235558
76.0002	0.0002203
76.5002	0.00020361
77.0002	0.000191689
77.5002	0.000184537
78.0002	0.000172616
78.5002	0.000161172
79.0002	0.00015545
79.5002	0.000147344
80.0002	0.000140191
80.5002	0.000138284
81.0001	0.000131608
81.5001	0.00012684
82.0001	0.000123502
82.5001	0.00012064
83.0001	0.00012064
83.5001	0.000116349
84.0001	0.000114918
84.5001	0.000109673
85.0001	0.000106812
85.5001	0.000108243
86.0001	0.000107289
86.5001	0.000105381
87.0001	0.000103951
87.5001	0.000103951
88.0001	0.000103951
88.5001	0.00010109
89.0001	0.00010109
89.5001	0.000100613
90.0001	9.97E-05
90.5001	9.54E-05
91.0001	9.58E-05
91.5001	9.49E-05
92.0001	9.87E-05
92.5001	9.44E-05
93.0001	9.39E-05
93.5001	9.39E-05
94	9.30E-05
94.5	9.49E-05
95	9.30E-05
95.5	9.30E-05
96	9.11E-05
96.5	9.16E-05
97	9.63E-05
97.5	9.01E-05
98	9.30E-05
98.5	9.01E-05
99	8.87E-05
99.5	8.44E-05
100	8.68E-05
100	9.01E-05
