Photodiode Viewing Angle (Degrees) - Plot 0	Lock-in Signal Amplitude (V) - Plot 0
-0.00386047	0.000100606
0.12114	0.000100472
0.246155	9.93E-05
0.371155	0.000101001
0.49617	9.94E-05
0.62117	0.000104055
0.74617	9.88E-05
0.871185	0.00010378
0.996185	9.97E-05
1.12039	9.97E-05
1.2462	0.000101582
1.3712	9.78E-05
1.4962	0.000101485
1.62122	0.000102461
1.74622	0.000101626
1.87122	9.70E-05
1.99623	0.000100501
2.12123	0.000101865
2.24625	9.73E-05
2.37125	0.000100308
2.49625	9.68E-05
2.62126	9.77E-05
2.74626	0.000101619
2.87126	9.62E-05
2.99628	0.000100635
3.12128	9.80E-05
3.24628	9.66E-05
3.37129	9.73E-05
3.49629	9.70E-05
3.62131	9.81E-05
3.74631	9.83E-05
3.87131	9.61E-05
3.99632	0.000100263
4.12132	9.74E-05
4.24632	9.97E-05
4.37134	9.88E-05
4.49634	9.61E-05
4.62134	9.80E-05
4.74635	9.90E-05
4.87135	9.70E-05
4.99635	9.78E-05
5.12137	9.86E-05
5.24637	9.80E-05
5.37138	9.59E-05
5.49638	9.69E-05
5.62138	9.75E-05
5.7464	9.89E-05
5.8714	0.000100188
5.9964	9.60E-05
6.12141	9.57E-05
6.24641	9.71E-05
6.37143	9.87E-05
6.49643	0.00010074
6.62143	9.85E-05
6.74644	9.85E-05
6.87144	9.68E-05
6.99646	9.82E-05
7.12147	9.87E-05
7.24647	9.42E-05
7.37147	9.78E-05
7.49648	9.62E-05
7.62148	9.68E-05
7.74648	9.69E-05
7.8715	9.82E-05
7.9965	9.83E-05
8.1215	9.75E-05
8.24651	9.93E-05
8.37151	9.91E-05
8.49653	9.78E-05
8.62153	9.79E-05
8.74653	9.89E-05
8.87154	9.52E-05
8.99654	9.87E-05
9.12155	9.53E-05
9.24656	9.99E-05
9.37156	9.82E-05
9.49657	9.47E-05
9.62157	9.66E-05
9.74658	9.73E-05
9.87159	9.76E-05
9.99659	9.79E-05
10.1216	9.67E-05
10.2466	9.66E-05
10.3716	9.43E-05
10.4966	9.86E-05
10.6216	9.95E-05
10.7466	9.50E-05
10.8716	9.55E-05
10.9966	9.83E-05
11.1216	9.63E-05
11.2466	9.63E-05
11.3709	9.58E-05
11.4959	9.29E-05
11.621	9.45E-05
11.7456	9.53E-05
11.8717	9.33E-05
11.9967	9.85E-05
12.1217	9.64E-05
12.2467	9.83E-05
12.3717	9.45E-05
12.4967	9.84E-05
12.6217	9.73E-05
12.7467	9.55E-05
12.8717	9.83E-05
12.9967	9.79E-05
13.1217	9.74E-05
13.2467	9.90E-05
13.3717	0.000100933
13.4967	9.76E-05
13.6217	9.72E-05
13.7468	9.96E-05
13.8718	9.87E-05
13.9968	9.53E-05
14.1208	9.83E-05
14.2455	9.82E-05
14.3718	9.92E-05
14.4968	9.99E-05
14.6218	9.50E-05
14.7468	9.76E-05
14.8718	9.59E-05
14.9968	9.73E-05
15.1218	9.47E-05
15.2468	9.86E-05
15.3718	9.62E-05
15.4968	9.73E-05
15.6218	9.77E-05
15.7468	9.32E-05
15.8719	9.44E-05
15.9969	9.59E-05
16.1214	9.43E-05
16.2469	9.66E-05
16.3709	9.75E-05
16.4961	9.78E-05
16.6219	9.76E-05
16.7469	9.94E-05
16.8719	9.36E-05
16.9969	9.92E-05
17.1219	9.75E-05
17.2469	9.95E-05
17.3719	9.81E-05
17.4969	9.90E-05
17.6219	9.93E-05
17.7469	9.77E-05
17.872	9.90E-05
17.997	9.62E-05
18.122	0.000101805
18.247	0.000101358
18.372	0.000100628
18.497	0.000100121
18.622	0.000101082
18.747	0.000100501
18.872	9.85E-05
18.997	0.000100047
19.122	9.89E-05
19.247	9.85E-05
19.37	0.000100293
19.497	9.93E-05
19.622	9.45E-05
19.747	0.000102215
19.872	9.56E-05
19.997	9.98E-05
20.1221	9.54E-05
20.2471	9.66E-05
20.3721	9.86E-05
20.4971	0.000100948
20.6221	9.81E-05
20.7471	9.91E-05
20.8721	9.86E-05
20.9971	9.88E-05
21.1221	9.71E-05
21.2471	9.82E-05
21.3721	0.000101418
21.4971	0.000100554
21.6221	0.000100345
21.7471	0.000103906
21.8721	0.000100025
21.9971	0.000101954
22.1221	9.89E-05
22.2471	0.000102699
22.3722	0.000101254
22.4972	0.000102915
22.6222	0.00010109
22.7472	9.84E-05
22.8722	0.000101962
22.9971	0.000103213
23.1222	0.000100859
23.2472	0.00010027
23.3722	9.88E-05
23.4972	9.76E-05
23.6222	9.98E-05
23.7472	9.86E-05
23.8722	0.000101991
23.9972	0.000103042
24.1222	0.000103422
24.2472	0.000100643
24.3722	9.88E-05
24.4973	0.000100971
24.6223	9.94E-05
24.7473	0.000100308
24.8723	0.000100755
24.9973	9.99E-05
25.1223	9.85E-05
25.2473	0.000102535
25.3722	0.000101157
25.4972	0.000101246
25.6223	0.000101194
25.7473	0.000100822
25.8723	0.000101313
25.9973	0.000101798
26.1223	0.000102714
26.2473	0.000101783
26.3723	0.000101209
26.4973	0.000101224
26.6224	0.000104286
26.7474	0.000105612
26.8724	0.000102729
26.9974	9.89E-05
27.1224	0.000100188
27.2474	0.000104942
27.3724	0.000103221
27.4974	0.000102513
27.6224	0.000102059
27.7474	0.000104756
27.8724	0.00010255
27.9974	0.000104949
28.1224	0.000102856
28.2474	0.000103385
28.3724	0.000101656
28.4974	0.000107207
28.6224	0.000103698
28.7474	0.000105843
28.8724	0.000108086
28.9975	0.000106439
29.1225	0.000107743
29.2475	0.000108511
29.3725	0.000106588
29.4975	0.000108622
29.6225	0.000109263
29.7475	0.000111618
29.8725	0.000108742
29.9975	0.000107296
30.1225	0.000110291
30.2475	0.000107594
30.3725	0.000107043
30.4975	0.000109762
30.6225	0.00010942
30.7475	0.00011202
30.8725	0.000110366
30.9975	0.000109844
31.1226	0.000109636
31.2476	0.000113301
31.3726	0.000114188
31.4976	0.000113875
31.6226	0.000112132
31.7476	0.000116222
31.8726	0.000115462
31.9976	0.000114903
32.1226	0.000114821
32.2476	0.000115179
32.3726	0.000113771
32.4976	0.000114896
32.6226	0.000119426
32.7476	0.000117988
32.8726	0.000117742
32.9976	0.000119158
33.1226	0.000115492
33.2477	0.000116282
33.3727	0.000116729
33.4977	0.000120014
33.6227	0.000117586
33.7477	0.000120715
33.8727	0.000118621
33.9977	0.000118904
34.1227	0.000123539
34.2477	0.000119545
34.3727	0.000126452
34.4977	0.000123435
34.6227	0.00012564
34.7477	0.000123941
34.8727	0.000126385
34.9977	0.000126855
35.1227	0.000126281
35.2477	0.000129634
35.3727	0.000128009
35.4977	0.000129835
35.6228	0.000126415
35.7476	0.00013134
35.8726	0.000129641
35.9971	0.000130736
36.1226	0.000130177
36.2478	0.000130543
36.3728	0.000133366
36.4978	0.00013727
36.6228	0.000136212
36.7478	0.000135855
36.8728	0.000133798
36.9978	0.00013435
37.1228	0.000136749
37.2478	0.000135616
37.3728	0.000132539
37.4978	0.000139148
37.6228	0.000138343
37.7479	0.000138299
37.8729	0.000139953
37.9979	0.000139781
38.1229	0.000145123
38.2479	0.000143372
38.3729	0.000144125
38.4979	0.000147053
38.6226	0.00014414
38.7479	0.000149951
38.8729	0.000149653
38.9979	0.000147537
39.1229	0.000147776
39.2479	0.000147902
39.3729	0.000152
39.4979	0.000153483
39.6229	0.000151657
39.7479	0.00015542
39.8729	0.000159384
39.998	0.000158877
40.123	0.000159414
40.248	0.000161261
40.373	0.000162588
40.498	0.000159659
40.623	0.000160121
40.748	0.00015776
40.873	0.00016074
40.998	0.000157596
41.123	0.000161507
41.248	0.000166208
41.373	0.000164472
41.498	0.000165247
41.623	0.000165173
41.748	0.000167863
41.873	0.000165292
41.998	0.000163705
42.123	0.000165486
42.248	0.000166365
42.3729	0.000167199
42.4981	0.000165657
42.6231	0.000168056
42.7481	0.000166313
42.8731	0.00016755
42.9981	0.000164562
43.1231	0.000170887
43.2481	0.000165776
43.3731	0.000169062
43.4981	0.000172005
43.6231	0.000169219
43.7481	0.000173808
43.8731	0.000172392
43.9981	0.000176684
44.1231	0.000173287
44.2482	0.000179806
44.3732	0.000178591
44.4982	0.000178748
44.6232	0.00017874
44.7482	0.000178793
44.8732	0.000176095
44.9982	0.000177377
45.1232	0.000175522
45.2482	0.000176982
45.3732	0.000177615
45.4982	0.000181646
45.6217	0.000184112
45.7463	0.000181668
45.8714	0.000182078
45.9982	0.000180506
46.1232	0.000182421
46.2482	0.000181326
46.3733	0.000182242
46.4983	0.000182503
46.6233	0.000182391
46.7483	0.000181221
46.8733	0.000181691
46.9983	0.000178711
47.1233	0.000178383
47.2483	0.000180089
47.3733	0.000178599
47.4983	0.000175753
47.6233	0.000174114
47.7483	0.000171469
47.8733	0.000168682
47.9983	0.000168444
48.1233	0.000169286
48.2483	0.000169122
48.3733	0.000168079
48.4983	0.000167572
48.6233	0.000175924
48.7484	0.000170865
48.8734	0.000174292
48.9984	0.000170768
49.1234	0.000171126
49.2484	0.000172318
49.3734	0.000166551
49.4984	0.000169308
49.6234	0.000167572
49.7484	0.000167035
49.8734	0.000166626
49.9984	0.000160337
50.1234	0.000160725
50.2484	0.000162737
50.3734	0.000159011
50.4984	0.000157082
50.623	0.000156679
50.7484	0.000157327
50.8735	0.000156016
50.9985	0.000152723
51.1235	0.000153632
51.2485	0.000155167
51.3735	0.000154757
51.4985	0.000156702
51.6235	0.000154675
51.7485	0.000152343
51.8735	0.000159354
51.9985	0.00015618
52.1235	0.00015773
52.2485	0.000155591
52.3735	0.000153483
52.4985	0.00015542
52.6235	0.000152835
52.7485	0.000148178
52.8735	0.000148245
52.9985	0.000148901
53.1236	0.000145578
53.2486	0.000141689
53.3736	0.000142642
53.4986	0.000146934
53.6236	0.000143581
53.7486	0.000143387
53.8736	0.000143201
53.9986	0.000141487
54.1236	0.000145667
54.2486	0.000139334
54.3736	0.000139938
54.4986	0.00014037
54.6236	0.000139088
54.7486	0.000135631
54.8736	0.000138701
54.9986	0.000137233
55.1236	0.000134409
55.2478	0.000137486
55.3737	0.000134923
55.4987	0.000135922
55.6237	0.000132346
55.7487	0.000131593
55.8737	0.000129604
55.9987	0.000127018
56.1237	0.000130557
56.2487	0.000128211
56.3737	0.00012789
56.4987	0.00012681
56.6237	0.000125707
56.7487	0.000120663
56.8737	0.000119448
56.9987	0.000120976
57.1237	0.000119009
57.2487	0.000117101
57.3737	0.000116297
57.4987	0.00011611
57.6238	0.000113033
57.7488	0.000113555
57.8738	0.000112445
57.9988	0.000111744
58.1238	0.000114091
58.2488	0.000110299
58.3738	0.000110709
58.4988	0.000111364
58.6238	0.000113555
58.7488	0.000112832
58.8738	0.000116207
58.9988	0.000116177
59.1238	0.000108935
59.2488	0.000110135
59.3738	0.000108742
59.4988	0.000105292
59.6238	0.000103392
59.7489	0.00010527
59.8739	0.000102789
59.9989	9.99E-05
60.1239	0.000101023
60.2489	0.000100025
60.3739	0.000100784
60.4989	9.95E-05
60.6239	9.58E-05
60.7489	9.84E-05
60.8739	9.06E-05
60.9989	9.32E-05
61.1239	9.21E-05
61.2489	9.44E-05
61.3739	9.14E-05
61.4989	9.19E-05
61.6239	9.31E-05
61.7489	9.69E-05
61.874	9.19E-05
61.999	9.04E-05
62.124	8.83E-05
62.249	8.85E-05
62.374	8.48E-05
62.499	8.41E-05
62.624	8.07E-05
62.749	8.16E-05
62.874	8.05E-05
62.999	8.26E-05
63.124	7.95E-05
63.249	8.19E-05
63.374	8.07E-05
63.499	8.21E-05
63.624	8.35E-05
63.749	8.07E-05
63.874	8.23E-05
63.999	7.59E-05
64.1241	8.04E-05
64.2491	7.60E-05
64.3741	7.23E-05
64.4991	7.65E-05
64.6241	7.30E-05
64.7491	7.27E-05
64.8741	7.32E-05
64.9991	7.25E-05
65.1232	7.04E-05
65.2491	6.84E-05
65.3741	6.90E-05
65.4991	6.60E-05
65.6241	6.62E-05
65.7491	6.95E-05
65.8741	6.94E-05
65.9991	6.39E-05
66.1241	6.65E-05
66.2492	6.76E-05
66.3742	6.33E-05
66.4992	6.19E-05
66.6242	6.30E-05
66.7492	6.44E-05
66.8742	6.30E-05
66.9992	6.22E-05
67.1242	6.10E-05
67.2492	6.17E-05
67.3742	6.02E-05
67.4992	6.18E-05
67.6242	6.01E-05
67.7492	6.31E-05
67.8742	5.86E-05
67.9992	5.78E-05
68.1242	5.92E-05
68.2492	5.81E-05
68.3742	5.94E-05
68.4993	5.55E-05
68.6243	5.24E-05
68.7493	5.32E-05
68.8743	5.15E-05
68.9993	5.37E-05
69.1243	5.20E-05
69.2493	5.18E-05
69.3742	5.28E-05
69.4992	5.38E-05
69.6243	5.14E-05
69.7493	5.82E-05
69.8739	5.12E-05
69.9993	5.07E-05
70.1243	5.04E-05
70.2493	5.00E-05
70.3743	5.09E-05
70.4993	5.01E-05
70.6244	5.06E-05
70.7494	4.91E-05
70.8744	5.15E-05
70.9994	4.81E-05
71.1244	4.91E-05
71.2494	4.66E-05
71.3744	4.83E-05
71.4994	4.63E-05
71.6244	4.79E-05
71.7494	4.28E-05
71.8744	4.44E-05
71.9994	4.67E-05
72.1244	4.62E-05
72.2494	4.38E-05
72.3744	4.65E-05
72.4994	4.62E-05
72.6244	4.40E-05
72.7494	4.40E-05
72.8745	4.12E-05
72.9992	4.36E-05
73.1245	4.38E-05
73.2495	4.31E-05
73.3745	4.53E-05
73.4995	4.39E-05
73.6245	4.22E-05
73.7495	3.76E-05
73.8745	3.97E-05
73.9995	4.17E-05
74.1245	3.78E-05
74.2495	4.00E-05
74.3745	3.98E-05
74.4995	3.83E-05
74.6245	3.69E-05
74.7495	3.45E-05
74.8745	3.71E-05
74.9995	3.60E-05
75.1246	3.73E-05
75.2496	3.45E-05
75.3746	3.58E-05
75.4996	3.57E-05
75.6246	3.51E-05
75.7496	3.91E-05
75.8746	3.47E-05
75.9996	3.33E-05
76.1246	3.26E-05
76.2496	3.54E-05
76.3746	3.20E-05
76.4996	3.56E-05
76.6246	3.39E-05
76.7496	3.44E-05
76.8746	3.89E-05
76.9996	3.71E-05
77.1246	3.51E-05
77.2496	3.55E-05
77.3747	3.21E-05
77.4997	3.24E-05
77.6247	3.53E-05
77.7497	3.26E-05
77.8747	3.03E-05
77.9997	3.48E-05
78.1247	3.50E-05
78.2497	3.00E-05
78.3747	3.45E-05
78.4997	3.19E-05
78.6247	3.02E-05
78.7497	3.25E-05
78.8747	3.18E-05
78.9997	3.12E-05
79.1247	3.19E-05
79.2497	2.96E-05
79.3747	3.12E-05
79.4998	2.79E-05
79.6248	2.79E-05
79.7493	2.62E-05
79.8743	2.89E-05
79.9998	2.77E-05
80.1248	2.82E-05
80.2498	2.86E-05
80.3748	2.84E-05
80.4998	2.91E-05
80.6248	3.05E-05
80.7498	2.65E-05
80.8748	2.66E-05
80.9998	2.70E-05
81.1248	2.65E-05
81.2498	2.53E-05
81.3748	2.52E-05
81.4998	2.55E-05
81.6248	2.48E-05
81.7495	2.85E-05
81.8749	2.61E-05
81.9999	2.74E-05
82.1249	2.45E-05
82.2499	2.31E-05
82.3749	2.38E-05
82.4999	2.29E-05
82.6249	2.30E-05
82.7499	2.46E-05
82.8749	2.50E-05
82.9999	2.03E-05
83.1249	2.40E-05
83.2499	2.36E-05
83.3749	2.57E-05
83.4999	2.12E-05
83.6249	2.36E-05
83.7499	2.11E-05
83.875	2.00E-05
84	2.15E-05
84.125	2.12E-05
84.25	2.24E-05
84.375	1.97E-05
84.5	2.15E-05
84.625	2.04E-05
84.75	1.95E-05
84.875	1.86E-05
85	2.16E-05
85	2.22E-05
-0.00386047	0.000101649
0.12114	0.000100516
0.246155	0.000102632
0.371155	0.000100829
0.49617	9.89E-05
0.62117	0.000102334
0.74617	1.00E-04
0.871185	9.98E-05
0.996185	0.000102602
1.12119	9.96E-05
1.2462	0.000101358
1.3712	9.69E-05
1.4962	9.84E-05
1.62042	9.85E-05
1.74622	0.000101485
1.87122	9.70E-05
1.99623	9.59E-05
2.12123	9.95E-05
2.24625	0.000100255
2.37125	9.77E-05
2.49625	9.93E-05
2.62126	9.62E-05
2.74626	9.89E-05
2.87126	9.62E-05
2.99628	0.000101746
3.12128	9.65E-05
3.24628	0.000100002
3.37129	9.95E-05
3.49597	0.000101522
3.62131	9.73E-05
3.74631	0.0001029
3.87131	9.77E-05
3.99632	9.96E-05
4.12132	9.85E-05
4.24632	9.75E-05
4.37134	9.68E-05
4.49634	9.83E-05
4.62134	9.72E-05
4.74635	9.78E-05
4.87135	9.80E-05
4.99635	9.73E-05
5.12137	9.66E-05
5.24637	9.61E-05
5.37138	9.51E-05
5.49638	9.76E-05
5.62138	9.87E-05
5.7464	9.87E-05
5.8714	9.99E-05
5.9964	9.72E-05
6.12141	9.78E-05
6.24641	9.67E-05
6.37143	9.71E-05
6.49643	9.56E-05
6.62143	9.76E-05
6.74644	0.000101336
6.87144	9.92E-05
6.99646	9.79E-05
7.12147	9.82E-05
7.24647	9.85E-05
7.37147	9.72E-05
7.49648	9.72E-05
7.62137	9.75E-05
7.74648	9.63E-05
7.8715	9.78E-05
7.9965	9.34E-05
8.1215	9.92E-05
8.24651	9.69E-05
8.37151	9.88E-05
8.49653	9.74E-05
8.62153	9.88E-05
8.74653	9.95E-05
8.87154	9.77E-05
8.99654	0.000100337
9.12155	9.62E-05
9.24656	9.71E-05
9.37156	9.54E-05
9.49657	9.53E-05
9.62157	9.92E-05
9.74658	9.72E-05
9.87159	9.71E-05
9.99659	9.56E-05
10.1216	9.84E-05
10.2455	9.82E-05
10.3703	9.65E-05
10.4956	9.91E-05
10.6216	9.72E-05
10.7466	9.88E-05
10.8716	9.76E-05
10.9966	9.50E-05
11.1216	9.58E-05
11.2466	9.57E-05
11.3717	9.54E-05
11.4967	9.79E-05
11.6217	9.44E-05
11.7467	9.52E-05
11.8717	9.75E-05
11.9967	9.47E-05
12.1217	9.42E-05
12.2467	9.86E-05
12.3717	9.53E-05
12.4967	9.94E-05
12.6217	9.95E-05
12.7467	9.41E-05
12.8717	9.84E-05
12.9967	9.91E-05
13.1217	9.66E-05
13.2467	9.66E-05
13.3717	9.50E-05
13.4967	0.000101343
13.6217	9.73E-05
13.7468	9.88E-05
13.8718	9.76E-05
13.9968	9.61E-05
14.1218	9.79E-05
14.2468	9.88E-05
14.3718	9.98E-05
14.4968	9.68E-05
14.6218	9.60E-05
14.7468	9.73E-05
14.8718	9.75E-05
14.9968	9.87E-05
15.1218	9.51E-05
15.2457	9.71E-05
15.3718	9.82E-05
15.4968	9.43E-05
15.6218	9.75E-05
15.7468	9.81E-05
15.8719	9.68E-05
15.9969	9.65E-05
16.1219	9.59E-05
16.2469	9.55E-05
16.3719	9.79E-05
16.4969	9.73E-05
16.6219	9.80E-05
16.7469	9.50E-05
16.8719	9.55E-05
16.9969	9.71E-05
17.1219	9.98E-05
17.2469	9.68E-05
17.3719	0.000100241
17.4969	9.96E-05
17.6219	9.46E-05
17.7469	9.57E-05
17.872	9.97E-05
17.997	9.87E-05
18.122	9.72E-05
18.247	9.76E-05
18.372	9.84E-05
18.497	9.67E-05
18.622	9.89E-05
18.747	9.97E-05
18.872	0.000100427
18.997	9.92E-05
19.122	9.61E-05
19.247	9.83E-05
19.372	9.93E-05
19.497	9.99E-05
19.622	9.72E-05
19.747	9.78E-05
19.872	9.76E-05
19.997	9.88E-05
20.1221	9.63E-05
20.2471	9.99E-05
20.3721	9.76E-05
20.4971	9.94E-05
20.6221	9.57E-05
20.7471	9.94E-05
20.8721	9.78E-05
20.9971	9.93E-05
21.1221	0.0001015
21.2471	0.000100732
21.3721	0.000100121
21.4971	0.00010214
21.6221	0.00010214
21.7471	0.000103072
21.8716	9.85E-05
21.9965	0.000100956
22.1211	0.000100412
22.2471	0.000100688
22.3722	0.000100099
22.4972	9.86E-05
22.6222	0.00010214
22.7472	9.96E-05
22.8722	0.000100993
22.9972	9.85E-05
23.1222	0.000100062
23.2472	0.000100829
23.3722	9.86E-05
23.4972	9.80E-05
23.6222	9.97E-05
23.7472	9.88E-05
23.8722	9.98E-05
23.9972	9.90E-05
24.1222	0.00010331
24.2472	0.000102319
24.3722	9.90E-05
24.4969	0.000100323
24.6216	0.000105113
24.7465	0.000100375
24.8709	9.89E-05
24.9957	9.95E-05
25.1223	0.000100226
25.2473	0.000100255
25.3723	0.000102737
25.4973	0.000100695
25.6223	0.000102856
25.7473	9.85E-05
25.8723	0.000101299
25.9973	0.000100516
26.1223	9.98E-05
26.2473	0.000101462
26.3723	0.00010176
26.4973	0.000103213
26.6224	0.000102632
26.7474	0.000102573
26.8724	0.000101284
26.9974	0.00010153
27.1224	9.98E-05
27.2474	0.000103616
27.3724	0.000101127
27.4974	0.000101448
27.6224	0.00010191
27.7474	0.000103057
27.8724	0.000103996
27.9974	0.000101291
28.1224	0.000103578
28.2474	0.000103891
28.3724	0.000104383
28.4974	0.000105151
28.6224	0.000104309
28.7474	0.00010337
28.8724	0.000104785
28.9975	0.000105851
29.1225	0.000108503
29.2475	0.000107363
29.3725	0.000107848
29.4975	0.00010553
29.6225	0.000106819
29.7466	0.000103236
29.8725	0.000105769
29.9975	0.000104562
30.1225	0.000106022
30.2475	0.000107632
30.3725	0.000108131
30.4975	0.000106909
30.6225	0.000108839
30.7475	0.000108861
30.8725	0.00010939
30.9975	0.0001098
31.1226	0.000112519
31.2476	0.000113875
31.3726	0.00011348
31.4976	0.000112594
31.6226	0.000114002
31.7476	0.000114277
31.8726	0.000110902
31.9976	0.000113361
32.1226	0.000113897
32.2476	0.000111238
32.3726	0.000116028
32.4976	0.000116438
32.6226	0.000117921
32.7476	0.000116446
32.8726	0.000113711
32.9976	0.000116937
33.1226	0.000117273
33.2477	0.000117608
33.3727	0.000117243
33.4977	0.000116006
33.6227	0.000116893
33.7477	0.000120163
33.8727	0.000119716
33.9977	0.000121654
34.1227	0.000122526
34.2477	0.000122459
34.3727	0.000124187
34.4977	0.000124351
34.6226	0.000128196
34.7477	0.000127108
34.8727	0.000122637
34.9977	0.000126936
35.1227	0.000128278
35.2471	0.000128151
35.3727	0.000128889
35.4977	0.000127406
35.6228	0.000126825
35.7478	0.000126698
35.8728	0.000131459
35.9978	0.000130535
36.1228	0.000126877
36.2478	0.000133798
36.3728	0.000131064
36.4978	0.000130341
36.6228	0.000130751
36.7478	0.000135408
36.8728	0.000133702
36.9978	0.000134588
37.1228	0.000130788
37.2478	0.000132308
37.3728	0.000133217
37.4978	0.000135564
37.6228	0.000136108
37.7479	0.000136093
37.8729	0.000138135
37.9979	0.000139051
38.1229	0.000139401
38.2479	0.000143454
38.3729	0.000141316
38.4979	0.000144982
38.6229	0.000145012
38.746	0.000143752
38.8729	0.000148789
38.9979	0.000149184
39.1229	0.000146979
39.2479	0.000150115
39.3729	0.000151121
39.4979	0.000147895
39.6229	0.00015241
39.7479	0.000152671
39.8729	0.00015799
39.998	0.000154228
40.123	0.000160218
40.248	0.000163601
40.373	0.000163035
40.498	0.000161246
40.623	0.000159704
40.748	0.000158281
40.873	0.000156381
40.998	0.000157
41.123	0.000157409
41.248	0.000160255
41.373	0.00016378
41.498	0.000163906
41.623	0.000165978
41.748	0.000168324
41.873	0.000163966
41.998	0.000161388
42.123	0.000163832
42.2481	0.000162707
42.3731	0.000171036
42.4981	0.000167274
42.6231	0.000168153
42.7481	0.000169353
42.8731	0.000168727
42.9981	0.000168846
43.1231	0.00016743
43.2481	0.000170038
43.3731	0.000168533
43.4981	0.000170485
43.6231	0.000173719
43.7481	0.00017284
43.8731	0.000174434
43.9981	0.000175104
44.1231	0.00017468
44.2482	0.000177511
44.3731	0.000182741
44.4982	0.00018035
44.6231	0.000180394
44.7482	0.000183673
44.8727	0.000178725
44.9979	0.000179836
45.1232	0.000175432
45.2482	0.00017655
45.3732	0.000181765
45.4982	0.000177667
45.6232	0.000180476
45.7482	0.000183531
45.8732	0.000183375
45.9982	0.000180536
46.1232	0.000182026
46.2482	0.000181259
46.3733	0.000182942
46.4983	0.000182466
46.6233	0.000181519
46.7483	0.000181244
46.8733	0.000179426
46.9983	0.000181773
47.1233	0.00018216
47.2483	0.000183598
47.3733	0.000176833
47.4983	0.000177168
47.6233	0.00017579
47.7483	0.000171327
47.8733	0.000171163
47.9983	0.000171141
48.1233	0.000169584
48.2483	0.000171081
48.3716	0.000171416
48.4983	0.000168429
48.6233	0.000172206
48.7484	0.000173503
48.8734	0.000173503
48.9984	0.000173033
49.1234	0.000172467
49.2484	0.000171506
49.3734	0.000170962
49.4984	0.000170187
49.6234	0.000165121
49.7484	0.000163452
49.8734	0.000163266
49.9984	0.000163467
50.1234	0.000159823
50.2484	0.000161082
50.3725	0.000161582
50.4975	0.000156724
50.6229	0.000158654
50.7484	0.000156232
50.8735	0.000155427
50.9985	0.000154578
51.1235	0.00015162
51.2485	0.000156746
51.3735	0.000152254
51.4985	0.000155964
51.6235	0.000150905
51.7485	0.000156463
51.8735	0.00015732
51.9985	0.000155867
52.1235	0.000155524
52.2485	0.00015995
52.3735	0.000158363
52.4982	0.00015498
52.6235	0.000153423
52.7485	0.00015355
52.8735	0.000149407
52.9985	0.0001482
53.1236	0.000145637
53.2486	0.000145347
53.3736	0.000145287
53.4986	0.000141771
53.6236	0.000143954
53.7486	0.000145496
53.8736	0.00014642
53.9986	0.000144736
54.1236	0.000143916
54.2486	0.000145101
54.3736	0.000140757
54.4986	0.000141063
54.6235	0.000141361
54.7486	0.000136242
54.8736	0.000137054
54.9986	0.000134916
55.1236	0.000136764
55.2486	0.000134886
55.3737	0.000137188
55.4987	0.000132115
55.6237	0.000134476
55.7487	0.000133038
55.8737	0.00013099
55.9987	0.000127205
56.1237	0.000129723
56.2487	0.000129194
56.3737	0.000126884
56.4987	0.000130304
56.6237	0.000126549
56.7487	0.000124582
56.8737	0.000125022
56.9987	0.000119314
57.1237	0.000118368
57.2487	0.000115425
57.3737	0.000119798
57.4987	0.000118353
57.6238	0.000112534
57.7488	0.000116267
57.8738	0.000116982
57.9988	0.000115589
58.1238	0.000111782
58.2488	0.000115775
58.3738	0.000113503
58.4988	0.000113234
58.6238	0.000113897
58.7488	0.000114002
58.8738	0.000113234
58.9988	0.000107795
59.1238	0.00011015
59.2488	0.000108339
59.3738	0.00010904
59.4988	0.000105225
59.6238	0.000100509
59.7489	0.000103139
59.8739	0.000105471
59.9989	0.000104622
60.1239	0.000101455
60.2489	0.000104271
60.3739	0.000102938
60.4989	9.78E-05
60.6239	9.97E-05
60.7489	9.37E-05
60.8739	9.50E-05
60.9989	9.28E-05
61.1239	9.47E-05
61.2489	9.17E-05
61.3739	9.08E-05
61.4989	9.00E-05
61.6239	9.07E-05
61.7489	9.62E-05
61.874	9.69E-05
61.999	9.33E-05
62.124	8.82E-05
62.249	8.79E-05
62.374	8.52E-05
62.499	8.38E-05
62.624	8.37E-05
62.749	7.93E-05
62.874	7.98E-05
62.999	8.33E-05
63.124	8.05E-05
63.249	8.42E-05
63.374	8.02E-05
63.499	8.16E-05
63.624	8.02E-05
63.749	7.98E-05
63.874	7.96E-05
63.999	7.73E-05
64.1241	7.91E-05
64.2491	7.58E-05
64.3741	7.29E-05
64.4991	7.49E-05
64.6241	7.33E-05
64.7491	7.07E-05
64.8741	7.13E-05
64.9991	7.19E-05
65.1241	6.84E-05
65.2491	7.05E-05
65.3741	7.00E-05
65.4991	6.97E-05
65.6241	6.70E-05
65.7491	6.82E-05
65.8741	6.61E-05
65.9991	6.71E-05
66.1241	6.53E-05
66.2492	6.58E-05
66.3742	6.19E-05
66.4992	6.51E-05
66.6242	6.12E-05
66.7492	6.52E-05
66.8742	6.15E-05
66.9992	6.48E-05
67.1242	6.52E-05
67.2492	6.18E-05
67.3742	6.45E-05
67.4992	6.35E-05
67.6242	6.57E-05
67.7492	6.34E-05
67.8742	6.01E-05
67.9992	6.26E-05
68.1242	5.94E-05
68.2492	5.88E-05
68.3742	6.07E-05
68.499	5.42E-05
68.6243	5.58E-05
68.7493	5.48E-05
68.8743	5.17E-05
68.9993	5.21E-05
69.1243	5.35E-05
69.2493	4.93E-05
69.3743	5.05E-05
69.4993	5.18E-05
69.6243	5.16E-05
69.7483	5.41E-05
69.8743	5.36E-05
69.9993	5.39E-05
70.1243	5.05E-05
70.2493	4.74E-05
70.3743	5.09E-05
70.4993	5.22E-05
70.6244	4.87E-05
70.7494	4.98E-05
70.8744	4.74E-05
70.9994	4.78E-05
71.1244	4.71E-05
71.2494	4.64E-05
71.3744	4.80E-05
71.4994	4.59E-05
71.6244	4.74E-05
71.7494	4.62E-05
71.8744	4.80E-05
71.9994	4.44E-05
72.1244	4.26E-05
72.2494	4.25E-05
72.3744	4.34E-05
72.4994	4.54E-05
72.6244	4.36E-05
72.7494	4.16E-05
72.8745	4.29E-05
72.9995	4.31E-05
73.1245	4.17E-05
73.2495	3.98E-05
73.3745	4.29E-05
73.4995	4.08E-05
73.6245	4.22E-05
73.7495	4.31E-05
73.8732	4.15E-05
73.9995	3.98E-05
74.1245	4.20E-05
74.2495	4.11E-05
74.3745	3.72E-05
74.4995	3.87E-05
74.6245	3.95E-05
74.7495	3.58E-05
74.8745	3.73E-05
74.9995	3.77E-05
75.1246	3.69E-05
75.2496	3.92E-05
75.3746	3.67E-05
75.4996	3.65E-05
75.6246	3.58E-05
75.7496	3.60E-05
75.8746	3.65E-05
75.9996	3.57E-05
76.1246	3.46E-05
76.2496	3.32E-05
76.3746	3.16E-05
76.4996	3.28E-05
76.6246	3.73E-05
76.7496	3.56E-05
76.8746	3.40E-05
76.9996	3.35E-05
77.1246	3.44E-05
77.2496	3.28E-05
77.3747	3.09E-05
77.4997	3.05E-05
77.6247	3.22E-05
77.7497	3.34E-05
77.8747	3.19E-05
77.9997	3.30E-05
78.1247	2.99E-05
78.2497	3.22E-05
78.3747	3.11E-05
78.4997	3.33E-05
78.6247	3.13E-05
78.7497	3.14E-05
78.8747	2.96E-05
78.9997	3.33E-05
79.1247	2.99E-05
79.2497	3.11E-05
79.3747	2.97E-05
79.4998	2.80E-05
79.6248	2.90E-05
79.7498	2.92E-05
79.8748	2.80E-05
79.9998	2.99E-05
80.1231	2.81E-05
80.248	2.70E-05
80.3729	2.90E-05
80.4998	2.72E-05
80.6248	2.38E-05
80.7498	2.53E-05
80.8748	2.94E-05
80.9998	2.95E-05
81.1248	2.74E-05
81.2498	2.64E-05
81.3748	2.79E-05
81.4998	2.76E-05
81.6248	2.31E-05
81.7499	2.58E-05
81.8749	2.33E-05
81.9999	2.05E-05
82.1249	2.83E-05
82.2499	2.40E-05
82.3749	2.19E-05
82.4999	2.29E-05
82.6249	2.10E-05
82.7499	2.48E-05
82.8749	2.48E-05
82.9999	1.91E-05
83.1249	2.29E-05
83.2499	2.29E-05
83.3749	1.91E-05
83.4999	1.91E-05
83.6249	2.29E-05
83.7499	1.91E-05
83.875	1.91E-05
84	2.29E-05
84.125	1.91E-05
84.25	2.29E-05
84.375	1.91E-05
84.5	1.91E-05
84.625	1.91E-05
84.75	1.91E-05
84.875	1.53E-05
85	1.53E-05
85	1.14E-05
-0.00386047	9.92E-05
0.12114	9.88E-05
0.246155	0.000103772
0.371155	0.000102908
0.49617	0.000101865
0.62117	0.000100106
0.74617	0.000101716
0.871185	0.000102491
0.995895	9.89E-05
1.12119	0.000102699
1.2462	1.00E-04
1.3712	0.000100971
1.4962	9.75E-05
1.62122	0.000101626
1.74622	1.00E-04
1.87122	0.000102222
1.99623	0.000101716
2.12123	9.97E-05
2.24625	9.86E-05
2.37125	0.00010103
2.49625	9.80E-05
2.62126	9.72E-05
2.74626	0.000101299
2.87126	9.97E-05
2.99628	9.90E-05
3.12128	9.87E-05
3.24628	9.76E-05
3.37129	9.79E-05
3.46822	9.83E-05
3.62091	9.64E-05
3.74631	9.84E-05
3.87131	9.46E-05
3.99632	9.80E-05
4.12132	9.75E-05
4.24632	0.000101209
4.37134	9.79E-05
4.48631	9.66E-05
4.62134	9.81E-05
4.74635	9.84E-05
4.87135	9.81E-05
4.99635	9.70E-05
5.12137	9.72E-05
5.24637	9.72E-05
5.37138	9.91E-05
5.49638	9.64E-05
5.62138	9.92E-05
5.7464	9.86E-05
5.8714	9.96E-05
5.9964	9.80E-05
6.12141	9.76E-05
6.24641	9.93E-05
6.37143	9.58E-05
6.49643	9.69E-05
6.62143	9.85E-05
6.74644	9.80E-05
6.87144	9.95E-05
6.99544	9.50E-05
7.12147	9.48E-05
7.24647	9.83E-05
7.37147	9.70E-05
7.49648	9.92E-05
7.62148	9.70E-05
7.74648	9.78E-05
7.8715	9.61E-05
7.9965	9.73E-05
8.1215	9.95E-05
8.24651	9.89E-05
8.37151	9.47E-05
8.49653	9.52E-05
8.62153	9.93E-05
8.74653	9.76E-05
8.87154	9.52E-05
8.99654	9.49E-05
9.12155	9.63E-05
9.24656	9.74E-05
9.37156	9.42E-05
9.49657	9.81E-05
9.62157	9.79E-05
9.74658	9.96E-05
9.87159	9.95E-05
9.99659	9.75E-05
10.1216	9.88E-05
10.2466	9.79E-05
10.3716	9.57E-05
10.4966	9.82E-05
10.6216	9.51E-05
10.7466	9.53E-05
10.8716	9.61E-05
10.9966	9.52E-05
11.1216	9.65E-05
11.2466	9.66E-05
11.3717	9.75E-05
11.4967	9.69E-05
11.6217	9.70E-05
11.7467	9.41E-05
11.8717	9.74E-05
11.9967	9.17E-05
12.1217	9.77E-05
12.2467	9.52E-05
12.3717	9.56E-05
12.4967	9.54E-05
12.6217	9.71E-05
12.7467	9.75E-05
12.8702	9.85E-05
12.9967	9.65E-05
13.1217	9.59E-05
13.2467	9.78E-05
13.3717	0.000100613
13.4967	9.69E-05
13.6217	9.60E-05
13.7468	9.61E-05
13.8718	9.80E-05
13.9967	9.90E-05
14.1215	9.57E-05
14.2468	9.69E-05
14.3712	0.000101328
14.4968	9.97E-05
14.6218	9.71E-05
14.7468	9.96E-05
14.8718	9.67E-05
14.9968	9.92E-05
15.1218	9.72E-05
15.2468	9.49E-05
15.3718	9.73E-05
15.4968	9.87E-05
15.6218	9.81E-05
15.7468	9.75E-05
15.8719	9.75E-05
15.9969	9.57E-05
16.1219	9.87E-05
16.2469	9.48E-05
16.3717	9.38E-05
16.4969	9.61E-05
16.6219	9.72E-05
16.7469	9.84E-05
16.8719	9.92E-05
16.9969	9.83E-05
17.1219	9.45E-05
17.2469	9.42E-05
17.3719	9.75E-05
17.4969	9.71E-05
17.6219	9.72E-05
17.7469	9.95E-05
17.872	9.85E-05
17.997	9.92E-05
18.122	0.000100971
18.247	9.86E-05
18.372	0.000101209
18.497	9.94E-05
18.622	9.92E-05
18.747	9.65E-05
18.872	9.86E-05
18.997	9.86E-05
19.122	9.64E-05
19.247	9.82E-05
19.372	9.85E-05
19.497	9.91E-05
19.622	1.00E-04
19.747	0.000100434
19.872	9.54E-05
19.997	9.77E-05
20.1221	9.66E-05
20.2471	9.60E-05
20.3721	9.52E-05
20.4971	9.48E-05
20.6221	9.84E-05
20.7471	9.82E-05
20.8721	9.73E-05
20.9971	9.60E-05
21.1221	9.91E-05
21.2471	9.87E-05
21.3721	0.000100941
21.4971	9.97E-05
21.6221	0.000101328
21.7471	9.92E-05
21.8721	1.00E-04
21.9971	1.00E-04
22.1221	0.00010264
22.2471	9.89E-05
22.3722	0.000101626
22.4972	0.000100881
22.6222	9.87E-05
22.7472	0.000101954
22.8722	9.65E-05
22.9972	0.000100732
23.1222	0.000100583
23.2472	9.65E-05
23.3722	9.84E-05
23.4972	0.000100881
23.6222	9.81E-05
23.7472	9.94E-05
23.8722	9.86E-05
23.9972	9.55E-05
24.1222	9.97E-05
24.2472	9.74E-05
24.3722	9.88E-05
24.4973	9.97E-05
24.6223	9.97E-05
24.7473	0.000101835
24.8723	9.91E-05
24.9973	0.000100881
25.1223	0.000100673
25.2473	0.000100285
25.3723	0.000100881
25.4973	9.96E-05
25.6223	0.000103087
25.7473	0.000102789
25.8723	0.00010115
25.9973	0.000100583
26.1223	0.000100911
26.2473	0.000103772
26.3723	9.93E-05
26.4973	0.000103802
26.6224	0.000104726
26.7474	0.000102759
26.8724	0.000104309
26.9974	0.000100881
27.1224	0.000103266
27.2474	0.000101626
27.3724	0.000102908
27.4974	0.000100524
27.6224	0.000103623
27.7474	0.000100196
27.8724	9.97E-05
27.9974	9.91E-05
28.1224	0.000100852
28.2474	0.000102759
28.3724	0.000103891
28.4974	0.000107557
28.6224	0.000107229
28.7474	0.000106931
28.8724	0.000104219
28.9975	0.000107855
29.1225	0.000104815
29.2475	0.000105054
29.3725	0.00010717
29.4975	0.000109822
29.6225	0.000103683
29.7475	0.000104756
29.8725	0.000108988
29.9975	0.000109554
30.1225	0.000104815
30.2475	0.000108064
30.3725	0.000108809
30.4975	0.00011158
30.6225	0.000112087
30.7475	0.000107408
30.8725	0.000108511
30.9975	0.000107497
31.1226	0.000109315
31.2476	0.0001117
31.3726	0.000111491
31.4976	0.000109673
31.6226	0.000112862
31.7476	0.000112117
31.8726	0.000111878
31.9976	0.000113369
32.1226	0.000115663
32.2476	0.000116259
32.3726	0.000115991
32.4976	0.000115663
32.6226	0.000113488
32.7476	0.000117839
32.8726	0.000118167
32.9976	0.000115484
33.1226	0.000116021
33.2477	0.000114322
33.3727	0.000116051
33.4977	0.00011465
33.6227	0.000116289
33.7477	0.000118524
33.8727	0.000119269
33.9977	0.000118584
34.1227	0.000118137
34.2477	0.00012228
34.3727	0.000124813
34.4977	0.000126273
34.6227	0.000122727
34.7477	0.000126124
34.8727	0.000125499
34.9977	0.000125558
35.1227	0.000126303
35.2477	0.000125588
35.3727	0.000126512
35.4977	0.000130177
35.6228	0.000128002
35.7478	0.000127436
35.8728	0.000126065
35.9978	0.000128836
36.1228	0.00012979
36.2478	0.000129879
36.3728	0.000131608
36.4978	0.000130416
36.621	0.000130118
36.7478	0.000133515
36.8728	0.000131906
36.9978	0.000135751
37.1228	0.00013426
37.2478	0.000135065
37.3728	0.000130446
37.4978	0.000134469
37.6228	0.000131668
37.7479	0.000135125
37.8729	0.000138731
37.9979	0.000139148
38.1229	0.000138373
38.2479	0.000139863
38.3729	0.000141294
38.4979	0.000141532
38.6229	0.00014645
38.7479	0.000144572
38.8729	0.000147224
38.9979	0.000153244
39.1229	0.000148715
39.2479	0.000150145
39.3729	0.000149758
39.4979	0.00015247
39.6229	0.00015095
39.7479	0.000157
39.8729	0.000155897
39.9979	0.000162036
40.1229	0.000161172
40.248	0.000165821
40.373	0.000163556
40.498	0.000160308
40.623	0.000159801
40.748	0.00015992
40.873	0.000156046
40.998	0.000158221
41.123	0.000160367
41.248	0.000158668
41.373	0.000162304
41.498	0.00016603
41.623	0.000166387
41.748	0.000165285
41.873	0.00016895
41.998	0.000164063
42.123	0.000164718
42.2481	0.000167222
42.3731	0.000166805
42.4981	0.000167073
42.6231	0.00016904
42.7481	0.000170887
42.8731	0.000170202
42.9981	0.000167937
43.1231	0.000165732
43.2481	0.000168116
43.3731	0.000166983
43.4981	0.000170858
43.6231	0.000173599
43.7481	0.000173897
43.8731	0.000180037
43.9981	0.00017497
44.1231	0.000180961
44.2482	0.000178338
44.3732	0.000178249
44.4982	0.000180156
44.6232	0.000178249
44.7482	0.00017655
44.8732	0.000177116
44.9982	0.000176103
45.1232	0.000173987
45.2482	0.000176043
45.3732	0.000177682
45.4982	0.00018403
45.6232	0.000181378
45.7482	0.000182838
45.8732	0.000185759
45.9982	0.000183136
46.1232	0.000185461
46.2482	0.000184686
46.3733	0.000184775
46.4983	0.000184507
46.6233	0.000184358
46.7483	0.000183106
46.8733	0.000184388
46.9983	0.00017801
47.1233	0.000183881
47.2483	0.00018111
47.3733	0.00018108
47.4983	0.000176759
47.6232	0.000176341
47.7482	0.000176401
47.8732	0.000173629
47.998	0.000171483
48.1229	0.000171722
48.2482	0.000169695
48.3733	0.00016898
48.4975	0.000167669
48.6224	0.000171275
48.7473	0.000176639
48.8723	0.000175566
48.9972	0.000171245
49.1223	0.000175477
49.2468	0.000172437
49.3734	0.000172646
49.4984	0.000169517
49.6234	0.000166864
49.7484	0.000165046
49.8734	0.000162036
49.9984	0.000162602
50.1234	0.000162483
50.2484	0.000160993
50.3734	0.000157149
50.4984	0.000159414
50.6234	0.000158072
50.7484	0.000159563
50.8735	0.000159622
50.9985	0.000156105
51.1235	0.00015694
51.2485	0.000154019
51.3735	0.000157149
51.4985	0.000156284
51.6218	0.000154913
51.7465	0.000155629
51.8716	0.00015694
51.9965	0.000160188
52.1235	0.000157655
52.2485	0.000157715
52.3735	0.000157
52.4985	0.000152827
52.6235	0.000153125
52.7485	0.000151367
52.8735	0.000150294
52.9985	0.000147463
53.1236	0.00014639
53.2486	0.000144691
53.3736	0.000143171
53.4986	0.000145317
53.6236	0.000144214
53.7486	0.000143141
53.8736	0.000142963
53.9986	0.000142784
54.1236	0.000145138
54.2486	0.000144214
54.3736	0.000144155
54.4986	0.000138969
54.6236	0.000139833
54.7486	0.000142158
54.8736	0.000136674
54.9986	0.000137926
55.1236	0.000133992
55.2486	0.000136615
55.3737	0.000134052
55.4986	0.000137241
55.6235	0.000134439
55.7487	0.000132711
55.8737	0.000132353
55.9987	0.000134588
56.1237	0.00013134
56.2487	0.000132323
56.3737	0.000131131
56.4987	0.000128509
56.6237	0.000126542
56.7487	0.000124634
56.8737	0.000123651
56.9987	0.000122697
57.1237	0.000122041
57.2487	0.000118375
57.3737	0.00011766
57.4987	0.000118614
57.6238	0.000114382
57.7488	0.000112623
57.8738	0.000116289
57.9988	0.000114561
58.1238	0.000114531
58.2488	0.00011307
58.3738	0.000111789
58.4988	0.000113398
58.6224	0.000114471
58.7477	0.00011465
58.8726	0.000114441
58.9967	0.000113339
59.1219	0.000108451
59.2488	0.000108481
59.3738	0.00010717
59.4988	0.00011018
59.6238	0.000109584
59.7489	0.000105441
59.8739	0.000106305
59.9989	0.000102878
60.1239	0.000100852
60.2489	9.80E-05
60.3739	0.000101358
60.4989	9.88E-05
60.6239	9.86E-05
60.7489	9.39E-05
60.8739	9.65E-05
60.9989	9.45E-05
61.1239	9.02E-05
61.2489	9.15E-05
61.3739	9.24E-05
61.4989	9.52E-05
61.6239	9.18E-05
61.7489	9.44E-05
61.874	9.37E-05
61.999	9.16E-05
62.124	9.09E-05
62.249	9.36E-05
62.374	8.56E-05
62.499	8.56E-05
62.624	8.64E-05
62.749	8.35E-05
62.874	8.34E-05
62.999	8.05E-05
63.123	8.07E-05
63.2481	8.02E-05
63.374	7.92E-05
63.499	7.97E-05
63.624	7.89E-05
63.749	7.81E-05
63.874	7.84E-05
63.999	7.77E-05
64.1241	7.41E-05
64.2491	7.53E-05
64.3741	7.34E-05
64.4991	7.53E-05
64.6241	7.53E-05
64.7491	7.25E-05
64.8741	7.05E-05
64.9991	6.89E-05
65.1241	7.12E-05
65.2491	6.90E-05
65.3741	6.88E-05
65.4991	6.83E-05
65.6241	6.82E-05
65.7491	6.41E-05
65.8741	7.01E-05
65.9991	6.60E-05
66.1241	6.72E-05
66.2492	6.35E-05
66.3742	6.31E-05
66.4992	6.41E-05
66.6242	6.37E-05
66.7492	6.45E-05
66.8742	6.37E-05
66.9992	6.10E-05
67.1242	6.27E-05
67.2492	6.06E-05
67.3742	6.02E-05
67.4992	6.06E-05
67.6242	6.22E-05
67.7492	6.16E-05
67.8742	6.26E-05
67.9992	6.11E-05
68.1242	5.92E-05
68.2492	5.79E-05
68.3742	5.66E-05
68.4993	5.65E-05
68.6243	5.28E-05
68.7493	5.66E-05
68.8743	5.60E-05
68.9993	5.55E-05
69.1243	5.19E-05
69.2488	5.11E-05
69.3743	5.42E-05
69.4993	5.45E-05
69.6243	5.36E-05
69.7493	5.58E-05
69.8743	5.43E-05
69.9993	5.31E-05
70.1243	5.05E-05
70.2493	5.27E-05
70.3743	4.97E-05
70.4993	5.16E-05
70.6244	5.23E-05
70.7494	5.25E-05
70.8744	5.01E-05
70.9994	4.96E-05
71.1244	4.70E-05
71.2494	4.83E-05
71.3744	4.64E-05
71.4988	4.97E-05
71.6244	4.69E-05
71.7494	4.83E-05
71.8744	4.55E-05
71.9994	4.71E-05
72.1244	4.51E-05
72.2494	4.43E-05
72.3744	4.60E-05
72.4994	4.44E-05
72.6244	4.37E-05
72.7494	4.32E-05
72.8745	4.39E-05
72.9995	4.28E-05
73.1245	4.35E-05
73.2495	4.32E-05
73.3745	4.16E-05
73.4992	4.36E-05
73.6241	4.15E-05
73.7495	4.18E-05
73.8745	4.25E-05
73.9995	4.37E-05
74.1245	3.85E-05
74.2495	4.17E-05
74.3745	3.95E-05
74.4995	3.92E-05
74.6245	3.79E-05
74.7495	3.78E-05
74.8745	3.89E-05
74.9995	3.73E-05
75.1246	3.86E-05
75.2496	3.91E-05
75.3746	3.77E-05
75.4996	4.09E-05
75.6246	3.89E-05
75.7492	3.80E-05
75.8742	3.61E-05
75.9996	3.50E-05
76.1246	3.68E-05
76.2496	3.42E-05
76.3746	3.36E-05
76.4996	3.35E-05
76.6246	3.50E-05
76.7496	3.99E-05
76.8746	3.64E-05
76.9996	3.44E-05
77.1246	3.81E-05
77.2496	3.41E-05
77.3747	3.33E-05
77.4997	3.00E-05
77.6247	3.49E-05
77.7497	3.45E-05
77.8747	3.38E-05
77.9997	3.19E-05
78.1247	3.34E-05
78.2497	3.21E-05
78.3747	3.47E-05
78.4997	3.19E-05
78.6247	3.09E-05
78.7497	3.44E-05
78.8747	3.32E-05
78.9997	3.16E-05
79.1247	3.17E-05
79.2497	2.77E-05
79.3747	2.60E-05
79.4998	2.55E-05
79.6248	2.46E-05
79.7498	2.67E-05
79.8748	2.86E-05
79.9998	2.85E-05
80.1248	2.92E-05
80.2498	2.45E-05
80.3748	2.89E-05
80.4998	2.97E-05
80.6248	2.77E-05
80.7498	2.74E-05
80.8748	2.89E-05
80.9998	2.65E-05
81.1248	2.80E-05
81.2498	2.04E-05
81.3748	2.24E-05
81.4998	2.12E-05
81.6248	2.29E-05
81.7499	2.35E-05
81.8749	2.42E-05
81.9999	2.42E-05
82.1249	2.88E-05
82.2499	2.37E-05
82.3749	2.42E-05
82.4999	2.21E-05
82.6249	2.18E-05
82.7499	2.42E-05
82.8749	2.58E-05
82.9999	1.99E-05
83.1249	2.41E-05
83.2499	2.30E-05
83.3749	2.38E-05
83.4999	2.35E-05
83.6249	2.36E-05
83.7499	2.15E-05
83.875	2.14E-05
84	2.02E-05
84.125	2.22E-05
84.25	2.20E-05
84.375	2.03E-05
84.5	1.74E-05
84.625	1.95E-05
84.75	1.63E-05
84.875	1.96E-05
85	2.11E-05
85	1.98E-05
-0.00386047	9.96E-05
0.12114	0.000100732
0.245667	9.97E-05
0.370163	0.000103087
0.49617	0.000102997
0.62117	0.000102342
0.74617	0.000101984
0.871185	9.93E-05
0.996185	9.64E-05
1.12119	0.000100017
1.2462	1.00E-04
1.3712	9.92E-05
1.4962	0.000100285
1.62122	9.95E-05
1.74622	9.68E-05
1.87122	0.000100077
1.99623	0.000100792
2.12123	9.67E-05
2.24625	9.94E-05
2.37125	9.69E-05
2.49625	9.89E-05
2.62126	9.83E-05
2.74626	9.98E-05
2.87126	0.000101358
2.99628	0.000100136
3.12128	9.66E-05
3.24628	9.52E-05
3.37129	9.70E-05
3.49629	9.75E-05
3.62131	9.62E-05
3.74631	9.86E-05
3.87131	9.92E-05
3.99632	9.80E-05
4.12132	9.72E-05
4.2451	9.85E-05
4.37045	9.93E-05
4.49634	9.70E-05
4.62134	9.72E-05
4.74635	9.93E-05
4.87135	0.000100673
4.99635	9.63E-05
5.12137	9.78E-05
5.24637	9.87E-05
5.37138	0.000100792
5.49638	9.84E-05
5.62138	9.62E-05
5.7464	9.78E-05
5.8714	9.58E-05
5.9964	9.79E-05
6.12141	9.58E-05
6.24641	9.96E-05
6.37143	9.84E-05
6.49643	9.68E-05
6.62143	9.73E-05
6.74644	9.76E-05
6.87144	9.59E-05
6.99646	9.58E-05
7.12147	9.55E-05
7.24647	9.72E-05
7.37147	9.66E-05
7.49648	9.60E-05
7.62148	9.61E-05
7.74648	9.79E-05
7.8715	9.96E-05
7.9965	9.76E-05
8.1215	9.73E-05
8.24651	9.83E-05
8.37151	9.82E-05
8.49653	9.71E-05
8.62153	0.000100643
8.74653	9.64E-05
8.87154	9.52E-05
8.99654	9.70E-05
9.12155	9.61E-05
9.24656	0.000100613
9.37156	9.81E-05
9.49657	9.53E-05
9.62157	9.64E-05
9.74658	0.000100464
9.87159	9.89E-05
9.99659	9.69E-05
10.1216	9.70E-05
10.2466	9.55E-05
10.3716	9.56E-05
10.4966	9.59E-05
10.6216	9.86E-05
10.7466	9.52E-05
10.8716	9.52E-05
10.9966	0.000100017
11.1216	9.36E-05
11.2466	9.67E-05
11.3717	9.41E-05
11.4967	9.59E-05
11.6217	9.83E-05
11.7467	9.64E-05
11.8717	9.34E-05
11.9967	9.69E-05
12.1217	9.44E-05
12.2467	9.81E-05
12.3717	9.85E-05
12.4967	9.82E-05
12.6217	9.84E-05
12.7467	0.000101179
12.8717	9.61E-05
12.9967	9.56E-05
13.1217	9.95E-05
13.2467	9.63E-05
13.3717	0.000100822
13.4967	9.75E-05
13.6217	9.85E-05
13.7468	9.62E-05
13.8718	0.000100106
13.9968	0.000100941
14.1218	9.71E-05
14.2468	0.000100494
14.3718	9.58E-05
14.4968	9.78E-05
14.6218	9.55E-05
14.7468	9.58E-05
14.8718	9.78E-05
14.9968	9.59E-05
15.1218	9.76E-05
15.2468	9.72E-05
15.3718	9.44E-05
15.4968	9.78E-05
15.6218	9.67E-05
15.7468	9.46E-05
15.8719	9.55E-05
15.9969	9.69E-05
16.1219	9.80E-05
16.2469	9.79E-05
16.3719	9.75E-05
16.4969	9.35E-05
16.6219	9.96E-05
16.7469	9.66E-05
16.8719	9.70E-05
16.9969	9.73E-05
17.1219	9.64E-05
17.2469	9.87E-05
17.3719	9.64E-05
17.4969	9.58E-05
17.6219	9.78E-05
17.7469	9.77E-05
17.872	9.45E-05
17.997	9.62E-05
18.122	9.76E-05
18.247	9.45E-05
18.372	9.66E-05
18.497	0.000100643
18.622	9.78E-05
18.747	9.96E-05
18.872	9.85E-05
18.997	9.62E-05
19.122	9.80E-05
19.247	9.89E-05
19.372	9.83E-05
19.497	9.83E-05
19.622	9.59E-05
19.747	9.86E-05
19.872	9.92E-05
19.997	9.75E-05
20.1221	9.96E-05
20.2471	0.000101507
20.3721	9.93E-05
20.4971	9.66E-05
20.6221	9.37E-05
20.7471	9.84E-05
20.8721	9.85E-05
20.9971	9.94E-05
21.1221	9.83E-05
21.2471	9.57E-05
21.3721	9.88E-05
21.4971	9.75E-05
21.6221	0.000100703
21.7471	9.78E-05
21.8721	0.000102103
21.9971	9.77E-05
22.1216	9.97E-05
22.2471	9.77E-05
22.3722	9.84E-05
22.4972	9.92E-05
22.6222	0.000100524
22.7472	9.97E-05
22.8722	9.79E-05
22.9972	9.71E-05
23.1222	0.000100315
23.2472	9.95E-05
23.3722	9.95E-05
23.4972	9.66E-05
23.6222	9.78E-05
23.7472	9.92E-05
23.8722	9.97E-05
23.9972	9.77E-05
24.1222	9.93E-05
24.2472	9.72E-05
24.3722	9.86E-05
24.4973	0.000100136
24.6223	0.000100971
24.7473	9.79E-05
24.8723	9.90E-05
24.9973	0.000101686
25.1223	9.96E-05
25.2473	0.000100375
25.3723	0.000103862
25.4973	9.97E-05
25.6223	0.000101686
25.7473	0.000104964
25.8723	0.000102282
25.9973	0.00010568
26.1223	0.000101209
26.2473	0.000101269
26.3723	0.000100404
26.4973	0.000101716
26.6224	9.94E-05
26.7474	0.000103832
26.8724	0.000100971
26.9974	0.00010261
27.1224	0.000103295
27.2474	9.94E-05
27.3724	0.000103027
27.4974	0.000101835
27.6224	0.000103236
27.7474	9.92E-05
27.8724	0.000101805
27.9974	0.000102312
28.1224	0.000105769
28.2465	0.000100762
28.3711	0.000103415
28.4974	0.000100852
28.6224	0.000106305
28.7474	0.000104666
28.8724	0.000106961
28.9975	0.000104368
29.1225	0.000108451
29.2475	0.000104309
29.3725	0.000106156
29.4975	0.000107259
29.6225	0.000105441
29.7475	0.000107289
29.8725	0.000108749
29.9975	0.000105381
30.1225	0.000108093
30.2467	0.000106901
30.3725	0.000105829
30.4975	0.000106037
30.6225	0.000109047
30.7475	0.000109375
30.8725	0.000109911
30.9975	0.000111372
31.1226	0.000112415
31.2476	0.00010869
31.3726	0.000110388
31.4976	0.000107915
31.6226	0.000109733
31.7476	0.000109375
31.8726	0.000109047
31.9976	0.000111878
32.1226	0.000111968
32.2476	0.000114501
32.3726	0.000114978
32.4976	0.000115723
32.6226	0.000114233
32.7476	0.000114948
32.8726	0.000116289
32.9976	0.000115991
33.1226	0.000116885
33.2477	0.000118793
33.3727	0.000114888
33.4977	0.000116736
33.6227	0.000118286
33.7476	0.000118763
33.8727	0.000119508
33.9976	0.000120342
34.1227	0.00012067
34.2475	0.000122518
34.3724	0.000121713
34.4974	0.000123442
34.6224	0.000122786
34.7477	0.000125499
34.8719	0.000122786
34.9971	0.000124366
35.1218	0.000127048
35.2471	0.000127406
35.3717	0.000127942
35.4967	0.000129254
35.6228	0.000129552
35.7478	0.000127346
35.8728	0.000128598
35.9978	0.000127674
36.1228	0.000125707
36.2478	0.000127257
36.3728	0.000128598
36.4978	0.000130833
36.6228	0.000130237
36.7478	0.000129909
36.8728	0.000132115
36.9978	0.000134439
37.1228	0.000134231
37.2478	0.000131727
37.3728	0.000134648
37.4978	0.000132681
37.6228	0.000134469
37.7479	0.000132681
37.8729	0.000137956
37.9979	0.000139535
38.1229	0.000137211
38.2479	0.0001404
38.3729	0.000143469
38.4979	0.00014183
38.6229	0.000146956
38.7479	0.000144036
38.8729	0.000148148
38.9979	0.000148208
39.1229	0.000149489
39.2479	0.000151695
39.3729	0.000152201
39.4979	0.000151695
39.6229	0.000153542
39.7479	0.000152738
39.8729	0.00015396
39.998	0.00015989
40.123	0.000161172
40.248	0.000158818
40.373	0.000161053
40.498	0.000160516
40.623	0.000160635
40.748	0.000157864
40.873	0.000157536
40.998	0.000157029
41.123	0.000158639
41.248	0.000158996
41.373	0.000163139
41.498	0.000166089
41.623	0.000166954
41.748	0.000168801
41.873	0.00016755
41.998	0.000167162
42.1227	0.00016445
42.2481	0.000167728
42.3731	0.000167162
42.4981	0.000166447
42.6231	0.000171156
42.7481	0.000169904
42.8731	0.000172616
42.9981	0.000169666
43.1231	0.000169159
43.2481	0.000171185
43.3731	0.000171752
43.4981	0.000172229
43.6231	0.000173778
43.7481	0.00017506
43.8731	0.000177414
43.9981	0.000180543
44.1231	0.000177831
44.2482	0.000181735
44.3732	0.000182391
44.4982	0.000182183
44.6232	0.000184448
44.7482	0.000181706
44.8732	0.000181527
44.9982	0.000177474
45.1229	0.000179739
45.2482	0.000179918
45.3728	0.000179679
45.498	0.000184954
45.6232	0.000182898
45.7482	0.000187219
45.8732	0.000189514
45.9982	0.000188948
46.1232	0.000184716
46.2482	0.000186772
46.3732	0.000188143
46.4983	0.000186355
46.6232	0.000187875
46.7482	0.000186593
46.8733	0.000185699
46.9983	0.000183792
47.1233	0.000184149
47.2483	0.000186236
47.3733	0.000181974
47.4983	0.000180365
47.6233	0.000180931
47.7483	0.00017658
47.8733	0.000177474
47.9983	0.000173003
48.1233	0.00017205
48.2483	0.000169427
48.3733	0.000172527
48.4983	0.000170351
48.6233	0.00017503
48.7483	0.00017357
48.8734	0.00017497
48.9984	0.000173868
49.1234	0.000177265
49.2483	0.000172229
49.3733	0.000172765
49.4981	0.000169993
49.6234	0.000171841
49.7484	0.000170381
49.8734	0.000166507
49.9984	0.000164063
50.1234	0.000162662
50.2484	0.000159086
50.3734	0.000162155
50.4984	0.000158162
50.6234	0.00015998
50.7484	0.000159086
50.8735	0.000158937
50.9985	0.000159712
51.1235	0.000156463
51.2485	0.000157178
51.3735	0.000159324
51.4985	0.000155599
51.6235	0.000157506
51.7485	0.000155897
51.8735	0.000155837
51.9985	0.000157894
52.1235	0.000158043
52.2485	0.00015989
52.3735	0.00015539
52.4985	0.000154079
52.6235	0.000156374
52.7485	0.000153036
52.8735	0.000152827
52.9985	0.00015095
53.1236	0.00014639
53.2486	0.000145853
53.3736	0.000145913
53.4986	0.000141979
53.6236	0.000147433
53.7486	0.000146092
53.8736	0.0001449
53.9986	0.00014338
54.1236	0.000144989
54.2486	0.000142635
54.3736	0.000140757
54.4986	0.000142605
54.6236	0.000140966
54.7486	0.000138761
54.8722	0.000138433
54.9973	0.000137777
55.1218	0.00013727
55.2465	0.000131638
55.3737	0.000135125
55.4987	0.000130863
55.6237	0.000132681
55.7487	0.000132949
55.8737	0.000134976
55.9987	0.000130416
56.1237	0.000129313
56.2487	0.000130326
56.3737	0.000130237
56.4987	0.000129999
56.6237	0.000128777
56.7487	0.000126661
56.8737	0.000124873
56.9987	0.000120461
57.1237	0.000120789
57.2487	0.000119687
57.3737	0.0001176
57.4987	0.000118256
57.6238	0.000117213
57.7488	0.000117153
57.8738	0.000115276
57.9988	0.000116528
58.1238	0.000111819
58.2488	0.000113398
58.3738	0.000113786
58.4988	0.000111223
58.6238	0.000113696
58.7488	0.000112504
58.8738	0.00011015
58.9988	0.000111223
59.1238	0.000112564
59.2488	0.000111133
59.3738	0.000109882
59.4988	0.000109733
59.6238	0.000105501
59.7489	0.000101865
59.8739	0.00010261
59.9989	0.000102044
60.1239	0.000103683
60.2489	0.000101626
60.3739	9.95E-05
60.4989	0.000100375
60.6239	0.000100673
60.7489	9.66E-05
60.8739	9.85E-05
60.9989	9.48E-05
61.1239	9.19E-05
61.2489	9.20E-05
61.3739	9.39E-05
61.4989	9.50E-05
61.6239	9.32E-05
61.7489	9.26E-05
61.874	9.02E-05
61.999	9.41E-05
62.1239	9.02E-05
62.2486	9.06E-05
62.374	8.45E-05
62.499	8.28E-05
62.624	8.34E-05
62.749	8.11E-05
62.874	8.31E-05
62.999	8.39E-05
63.124	8.17E-05
63.249	8.07E-05
63.374	8.15E-05
63.499	8.04E-05
63.624	8.43E-05
63.749	8.01E-05
63.874	7.72E-05
63.999	7.65E-05
64.1241	7.53E-05
64.2491	7.43E-05
64.3741	7.61E-05
64.4991	7.37E-05
64.6241	7.16E-05
64.7491	7.32E-05
64.8741	7.30E-05
64.9991	7.36E-05
65.1241	6.85E-05
65.2491	6.73E-05
65.3741	6.89E-05
65.4991	6.97E-05
65.6241	6.90E-05
65.7491	6.90E-05
65.8741	6.83E-05
65.9991	6.49E-05
66.1241	6.34E-05
66.2492	6.65E-05
66.3742	6.42E-05
66.4992	6.43E-05
66.6242	5.87E-05
66.7492	6.03E-05
66.874	6.22E-05
66.999	6.11E-05
67.1241	6.61E-05
67.249	5.87E-05
67.3737	6.28E-05
67.4989	6.40E-05
67.6242	6.46E-05
67.7492	6.40E-05
67.8742	6.27E-05
67.9992	6.23E-05
68.1242	6.06E-05
68.2492	5.80E-05
68.3742	5.65E-05
68.4993	5.92E-05
68.6243	5.73E-05
68.7493	5.10E-05
68.8743	5.45E-05
68.9993	5.50E-05
69.1243	5.68E-05
69.2493	5.40E-05
69.3743	5.39E-05
69.4993	5.26E-05
69.6243	5.37E-05
69.7488	5.27E-05
69.8739	5.39E-05
69.9989	5.43E-05
70.1237	5.23E-05
70.2493	5.18E-05
70.3743	4.97E-05
70.4993	5.13E-05
70.6244	5.03E-05
70.7494	4.59E-05
70.8744	4.80E-05
70.9994	4.84E-05
71.1244	4.82E-05
71.2494	4.77E-05
71.3744	5.01E-05
71.4994	4.69E-05
71.6244	4.57E-05
71.7494	4.61E-05
71.8743	4.63E-05
71.9992	4.86E-05
72.1241	4.68E-05
72.2491	4.45E-05
72.3744	4.57E-05
72.4994	4.75E-05
72.6244	4.32E-05
72.7494	4.63E-05
72.8745	4.55E-05
72.9995	4.80E-05
73.1245	4.19E-05
73.2495	4.47E-05
73.3745	4.38E-05
73.4995	4.27E-05
73.6245	4.23E-05
73.7495	4.00E-05
73.8745	4.35E-05
73.9995	4.25E-05
74.1245	4.35E-05
74.2495	4.32E-05
74.3745	4.04E-05
74.4995	4.13E-05
74.6241	3.83E-05
74.7495	3.91E-05
74.8745	4.01E-05
74.9995	3.78E-05
75.1246	3.58E-05
75.2496	3.95E-05
75.3746	3.88E-05
75.4996	3.65E-05
75.6246	3.49E-05
75.7496	3.71E-05
75.8746	3.70E-05
75.9996	3.95E-05
76.1246	3.41E-05
76.2496	3.18E-05
76.3746	3.48E-05
76.4996	3.47E-05
76.6246	3.73E-05
76.7496	3.65E-05
76.8746	3.45E-05
76.9996	3.24E-05
77.1246	3.33E-05
77.2492	3.32E-05
77.3747	3.35E-05
77.4997	3.14E-05
77.6247	3.30E-05
77.7497	3.27E-05
77.8747	3.30E-05
77.9997	3.31E-05
78.1247	3.26E-05
78.2497	3.06E-05
78.3747	3.02E-05
78.4997	3.48E-05
78.6247	3.03E-05
78.7497	3.26E-05
78.8747	3.00E-05
78.9997	3.08E-05
79.1247	2.75E-05
79.2489	2.59E-05
79.3735	2.77E-05
79.4998	2.71E-05
79.6248	3.16E-05
79.7498	2.84E-05
79.8748	3.19E-05
79.9998	2.74E-05
80.1248	2.85E-05
80.2498	3.08E-05
80.3748	3.02E-05
80.4998	3.00E-05
80.6248	3.10E-05
80.7498	2.73E-05
80.8748	2.69E-05
80.9998	2.88E-05
81.1248	2.59E-05
81.2495	2.97E-05
81.3746	2.36E-05
81.4992	2.87E-05
81.6248	2.17E-05
81.7499	2.72E-05
81.8749	2.36E-05
81.9999	2.49E-05
82.1249	2.26E-05
82.2499	2.35E-05
82.3749	2.33E-05
82.4999	2.31E-05
82.6249	2.47E-05
82.7499	2.38E-05
82.8747	2.29E-05
82.9997	2.30E-05
83.1246	2.43E-05
83.2499	2.12E-05
83.3749	1.98E-05
83.4999	2.38E-05
83.6249	2.36E-05
83.7499	2.27E-05
83.875	2.14E-05
84	2.47E-05
84.125	2.03E-05
84.25	1.96E-05
84.375	2.12E-05
84.5	1.95E-05
84.625	2.06E-05
84.75	1.81E-05
84.875	1.85E-05
85	1.95E-05
85	2.00E-05
-0.00386047	0.000101239
0.12114	0.000100494
0.246155	0.00010112
0.371155	9.98E-05
0.49617	9.79E-05
0.62117	0.000102908
0.74617	9.89E-05
0.871185	9.95E-05
0.996185	9.99E-05
1.12119	0.000100554
1.2462	0.000101209
1.3712	0.000101269
1.4962	0.000101448
1.62122	9.97E-05
1.74622	0.000100226
1.87122	0.000100524
1.99623	9.86E-05
2.12123	0.000100315
2.24625	9.79E-05
2.37125	0.000100345
2.49625	9.92E-05
2.62126	9.92E-05
2.74626	9.70E-05
2.87126	9.77E-05
2.99619	9.77E-05
3.12025	0.000100732
3.24628	9.91E-05
3.37129	9.90E-05
3.49629	9.75E-05
3.62131	9.75E-05
3.74631	0.000100315
3.87131	9.88E-05
3.99632	9.90E-05
4.12132	9.73E-05
4.24632	9.66E-05
4.37134	9.83E-05
4.49634	9.89E-05
4.62134	0.000100554
4.74635	9.90E-05
4.87135	9.74E-05
4.99635	9.89E-05
5.12137	9.70E-05
5.24637	9.56E-05
5.37138	0.000100315
5.49638	9.74E-05
5.62138	9.71E-05
5.7464	9.77E-05
5.8714	9.76E-05
5.9964	9.56E-05
6.12141	9.72E-05
6.24641	9.78E-05
6.37143	0.000100136
6.49643	9.66E-05
6.62143	9.86E-05
6.74644	9.72E-05
6.87144	9.78E-05
6.99646	9.82E-05
7.12147	9.62E-05
7.24458	9.68E-05
7.37147	9.81E-05
7.49648	9.74E-05
7.62148	0.000100077
7.74648	9.64E-05
7.8715	9.92E-05
7.9965	9.75E-05
8.1215	9.80E-05
8.24651	9.92E-05
8.37151	9.64E-05
8.49653	9.97E-05
8.62153	9.86E-05
8.74653	9.92E-05
8.87154	9.89E-05
8.99654	9.92E-05
9.12155	9.84E-05
9.24656	9.85E-05
9.37156	9.70E-05
9.49657	9.74E-05
9.62157	9.69E-05
9.74658	9.86E-05
9.87159	9.99E-05
9.99659	0.00010103
10.1216	9.61E-05
10.2466	9.50E-05
10.3716	9.91E-05
10.4966	9.55E-05
10.6216	9.38E-05
10.7466	9.53E-05
10.8716	9.67E-05
10.9966	9.93E-05
11.1216	9.70E-05
11.2466	9.43E-05
11.3717	9.40E-05
11.4967	9.75E-05
11.6217	9.75E-05
11.7467	9.63E-05
11.8702	9.72E-05
11.9967	9.43E-05
12.1217	9.62E-05
12.2467	9.65E-05
12.3717	9.69E-05
12.4967	9.83E-05
12.6217	9.96E-05
12.7467	9.57E-05
12.8717	9.66E-05
12.9967	9.59E-05
13.1217	9.83E-05
13.2467	9.50E-05
13.3717	9.67E-05
13.4967	9.59E-05
13.6217	9.56E-05
13.7468	9.61E-05
13.8718	9.55E-05
13.9968	9.94E-05
14.1218	9.91E-05
14.2468	9.97E-05
14.3718	9.50E-05
14.4966	9.88E-05
14.6218	9.95E-05
14.7468	9.73E-05
14.8718	9.81E-05
14.9968	0.000101924
15.1218	9.75E-05
15.2468	9.49E-05
15.3718	9.87E-05
15.4968	9.49E-05
15.6216	9.72E-05
15.7463	9.45E-05
15.8713	9.92E-05
15.9969	9.96E-05
16.1219	0.00010109
16.2469	9.75E-05
16.3719	9.72E-05
16.4969	9.77E-05
16.6219	9.89E-05
16.7469	9.52E-05
16.8719	9.50E-05
16.9969	9.80E-05
17.1219	9.81E-05
17.2469	9.91E-05
17.3719	9.25E-05
17.4968	9.69E-05
17.6218	9.85E-05
17.7469	9.82E-05
17.872	9.68E-05
17.997	9.69E-05
18.122	9.78E-05
18.247	9.75E-05
18.372	9.80E-05
18.497	9.81E-05
18.622	9.50E-05
18.747	9.64E-05
18.872	9.72E-05
18.997	9.98E-05
19.122	9.56E-05
19.247	9.55E-05
19.372	9.52E-05
19.497	9.81E-05
19.622	0.000100613
19.747	9.75E-05
19.872	9.57E-05
19.997	9.77E-05
20.1221	9.53E-05
20.2471	9.63E-05
20.3721	9.33E-05
20.4971	9.69E-05
20.6221	9.92E-05
20.7471	9.57E-05
20.8721	9.55E-05
20.9971	9.85E-05
21.1221	9.60E-05
21.2471	9.47E-05
21.3721	9.89E-05
21.4971	9.76E-05
21.6221	9.86E-05
21.7471	9.65E-05
21.8721	9.71E-05
21.9971	9.89E-05
22.1221	9.88E-05
22.2471	0.000100732
22.3722	0.000100404
22.4972	9.90E-05
22.6222	9.81E-05
22.7472	9.62E-05
22.8722	9.57E-05
22.9972	9.93E-05
23.1222	9.83E-05
23.2472	9.67E-05
23.3722	9.66E-05
23.4972	9.67E-05
23.6222	9.89E-05
23.7472	9.86E-05
23.8722	9.88E-05
23.9972	9.78E-05
24.1222	9.90E-05
24.2472	9.59E-05
24.3722	9.79E-05
24.4973	0.000100971
24.6223	9.89E-05
24.7473	9.96E-05
24.8723	9.60E-05
24.9973	9.75E-05
25.1223	0.000100434
25.2473	9.77E-05
25.3723	0.000100583
25.4973	0.000101686
25.6223	9.97E-05
25.7473	0.000103355
25.8723	0.000101418
25.9973	9.98E-05
26.1223	0.000101418
26.2473	0.000102938
26.3723	0.000100971
26.4973	9.98E-05
26.6224	9.82E-05
26.7474	0.000101567
26.8724	0.000102401
26.9974	0.000102133
27.1224	0.000102431
27.2474	0.00010258
27.3724	0.000100404
27.4974	0.00010264
27.6224	0.000101984
27.7474	0.000102133
27.8724	1.00E-04
27.9974	0.000100792
28.1224	0.000102699
28.2474	0.000101269
28.3724	0.000105471
28.4974	0.00010559
28.6224	0.000104577
28.7474	0.000103772
28.8724	0.000106544
28.9975	0.000100643
29.1225	0.000106097
29.2475	0.000104249
29.3725	0.000105381
29.4975	0.000107229
29.6225	0.000102073
29.7475	0.000106454
29.8725	0.000108451
29.9975	0.000106514
30.1216	0.000108243
30.2463	0.000109524
30.3714	0.000111431
30.4975	0.000110358
30.6207	0.00011158
30.7475	0.000111789
30.8725	0.000109226
30.9975	0.000109852
31.1226	0.000106544
31.2476	0.000113041
31.3726	0.000111133
31.4976	0.000111938
31.6226	0.000108749
31.7476	0.000114948
31.8726	0.0001117
31.9976	0.000113786
32.1226	0.000112236
32.2476	0.000115067
32.3726	0.000112385
32.4976	0.000113905
32.6226	0.000117273
32.7476	0.000115067
32.8726	0.000116855
32.9976	0.000111849
33.1226	0.000115514
33.2477	0.000117034
33.3727	0.000114739
33.4977	0.000116349
33.6227	0.000114769
33.7477	0.000114948
33.8727	0.000120432
33.9977	0.000117124
34.1227	0.000120849
34.2477	0.00011924
34.3727	0.000122369
34.4977	0.000122697
34.6207	0.000124992
34.7477	0.000126482
34.8727	0.000122876
34.9977	0.000124932
35.1227	0.000124515
35.2477	0.000128985
35.3726	0.00012681
35.4977	0.000126393
35.6228	0.000130833
35.7478	0.000130118
35.8728	0.000128985
35.9978	0.000130505
36.122	0.000127972
36.2478	0.000128181
36.3728	0.000129969
36.4978	0.000131429
36.6228	0.000130505
36.7478	0.000132174
36.8728	0.000137092
36.9978	0.000132562
37.1228	0.00013438
37.2478	0.00013134
37.3728	0.000133903
37.4978	0.0001328
37.6228	0.000135005
37.7461	0.000135601
37.8713	0.000136555
37.9979	0.000138373
38.1229	0.000138761
38.2479	0.000142218
38.3729	0.000139833
38.4979	0.000142277
38.6229	0.000145526
38.7479	0.000146301
38.8729	0.000145913
38.9979	0.000150383
39.1229	0.000149787
39.2479	0.00014782
39.3729	0.000147552
39.4979	0.000150205
39.6229	0.00015244
39.7479	0.000152172
39.8729	0.000156731
39.998	0.00015837
40.123	0.000160844
40.248	0.000162394
40.373	0.000165344
40.498	0.000162811
40.623	0.0001629
40.748	0.000159324
40.873	0.000158132
40.998	0.00015843
41.123	0.000162602
41.248	0.000161649
41.373	0.000161172
41.498	0.000161172
41.623	0.000169755
41.748	0.000167848
41.873	0.000166894
41.998	0.000169278
42.123	0.000164987
42.2481	0.000162126
42.3731	0.000166417
42.4981	0.000165463
42.6231	0.000166894
42.7481	0.000172616
42.8731	0.000166894
42.9981	0.000167848
43.1231	0.000168801
43.2481	0.000167848
43.3731	0.000167848
43.4981	0.000168801
43.6217	0.000176908
43.7481	0.00017357
43.8731	0.000175
43.9981	0.000175954
44.1231	0.000179292
44.2482	0.000179292
44.3732	0.000179292
44.4982	0.000177861
44.6232	0.000179292
44.7482	0.000177861
44.8731	0.000179769
44.9978	0.000175
45.123	0.000175
45.2482	0.000170709
45.3732	0.000174523
45.4982	0.000175954
45.6232	0.000185014
45.7482	0.000183106
45.8732	0.000187398
45.9982	0.000186921
46.1232	0.000186444
46.2482	0.000186444
46.3733	0.000187875
46.4983	0.000189305
46.6233	0.000184537
46.7483	0.000186444
46.8733	0.000185967
46.9983	0.000182153
47.1233	0.000183106
47.2483	0.000183583
47.3733	0.000181199
47.4983	0.000177861
47.6216	0.000178338
47.7478	0.000177384
47.8733	0.000175954
47.9982	0.000175954
48.1226	0.000170709
48.2483	0.000171185
48.3733	0.000171185
48.4983	0.000172616
48.6233	0.000172139
48.7484	0.000173093
48.8734	0.000174523
48.9984	0.000171662
49.1234	0.000173093
49.2484	0.000169278
49.3734	0.000166894
49.4984	0.000169278
49.6234	0.000168324
49.7484	0.000167371
49.8734	0.000162602
49.9984	0.000164987
50.1234	0.000161649
50.2484	0.000161649
50.3734	0.000162126
50.4984	0.000161172
50.6234	0.000158788
50.7484	0.00015688
50.8735	0.000156404
50.9985	0.000156404
51.1235	0.00015688
51.2485	0.00015688
51.3735	0.00015545
51.4985	0.00015688
51.6235	0.000154496
51.7485	0.000154973
51.8735	0.00015545
51.9985	0.000154973
52.1235	0.000154496
52.2485	0.000157834
52.3735	0.000155927
52.4985	0.000155927
52.6235	0.000154973
52.7485	0.000154019
52.8735	0.000152112
52.9985	0.000148297
53.1236	0.000149251
53.2486	0.000147344
53.3736	0.000144959
53.4986	0.000143052
53.6236	0.000142575
53.7486	0.000141622
53.8736	0.000144483
53.9986	0.000142575
54.1236	0.000140668
54.2486	0.000142575
54.3736	0.000143529
54.4986	0.000136853
54.6236	0.000139237
54.7486	0.000137807
54.8736	0.000140668
54.9986	0.0001359
55.1236	0.000134946
55.2486	0.000134946
55.3737	0.0001359
55.4987	0.000132562
55.6237	0.000130177
55.7486	0.000131608
55.8728	0.000131608
55.9981	0.000129224
56.1237	0.000130177
56.2487	0.00012827
56.3737	0.000129224
56.4987	0.000125886
56.6237	0.00012827
56.7487	0.000126363
56.8737	0.000122548
56.9987	0.000123502
57.1237	0.000118733
57.2487	0.000115872
57.3737	0.000117302
57.4987	0.000113011
57.6238	0.000117302
57.7488	0.000116826
57.8738	0.00011158
57.9983	0.000111104
58.1238	0.000113965
58.2488	0.000112057
58.3738	0.000112057
58.4988	0.000110627
58.6238	0.000112057
58.7488	0.000115395
58.8738	0.000111104
58.9988	0.000112534
59.1238	0.00011158
59.2488	0.000107766
59.3738	0.000108243
59.4988	0.000103951
59.6238	0.000103474
59.7489	0.000104905
59.8736	0.000103951
59.9987	0.000103951
60.1239	0.000104905
60.2489	0.000101567
60.3734	0.00010109
60.4989	9.92E-05
60.6239	9.82E-05
60.7489	9.25E-05
60.8739	9.30E-05
60.9989	9.44E-05
61.1239	9.44E-05
61.2489	9.06E-05
61.3739	9.20E-05
61.4989	9.20E-05
61.6239	8.96E-05
61.7489	9.20E-05
61.874	9.35E-05
61.999	9.30E-05
62.124	8.96E-05
62.249	8.73E-05
62.374	8.49E-05
62.499	8.54E-05
62.624	8.06E-05
62.749	8.25E-05
62.874	8.39E-05
62.999	7.96E-05
63.124	8.06E-05
63.2472	7.92E-05
63.374	8.15E-05
63.499	8.11E-05
63.624	7.87E-05
63.749	7.87E-05
63.874	7.82E-05
63.999	7.82E-05
64.1241	7.49E-05
64.2491	7.49E-05
64.3741	7.39E-05
64.4991	7.25E-05
64.6241	7.30E-05
64.7491	7.20E-05
64.8741	7.30E-05
64.9991	6.96E-05
65.1241	6.72E-05
65.2491	6.53E-05
65.3741	6.77E-05
65.4991	6.53E-05
65.6241	6.44E-05
65.7491	6.63E-05
65.8741	6.72E-05
65.9991	6.34E-05
66.1241	6.63E-05
66.2492	6.44E-05
66.3742	6.29E-05
66.4992	6.25E-05
66.6242	5.82E-05
66.7492	6.15E-05
66.8742	6.20E-05
66.9992	5.77E-05
67.1242	6.29E-05
67.2492	6.15E-05
67.3742	5.91E-05
67.4992	6.29E-05
67.6242	5.82E-05
67.7492	6.06E-05
67.8742	6.06E-05
67.9992	6.39E-05
68.1242	5.53E-05
68.2492	5.39E-05
68.3742	5.58E-05
68.4993	5.20E-05
68.6243	5.34E-05
68.7493	5.29E-05
68.8743	5.20E-05
68.9993	5.20E-05
69.1242	5.34E-05
69.2493	5.25E-05
69.3743	5.39E-05
69.4993	5.29E-05
69.6243	5.05E-05
69.7493	5.20E-05
69.8743	5.29E-05
69.9993	5.29E-05
70.1243	5.05E-05
70.2493	4.86E-05
70.3743	4.86E-05
70.4993	4.86E-05
70.6243	5.15E-05
70.7494	4.91E-05
70.8744	4.67E-05
70.9994	4.77E-05
71.1244	4.96E-05
71.2494	4.72E-05
71.3744	4.86E-05
71.4994	4.77E-05
71.6244	4.77E-05
71.7494	4.58E-05
71.8744	4.29E-05
71.9994	4.20E-05
72.1244	4.67E-05
72.2494	4.34E-05
72.3744	4.29E-05
72.4994	4.29E-05
72.6244	4.43E-05
72.7494	4.48E-05
72.8745	4.15E-05
72.9995	4.39E-05
73.1245	4.53E-05
73.2495	4.39E-05
73.3745	3.96E-05
73.4995	3.86E-05
73.6245	3.72E-05
73.7495	4.39E-05
73.8745	4.20E-05
73.9995	4.05E-05
74.1245	4.20E-05
74.2495	4.01E-05
74.3745	3.77E-05
74.4995	3.96E-05
74.6245	4.29E-05
74.7495	3.96E-05
74.8745	3.43E-05
74.9995	3.67E-05
75.1246	3.67E-05
75.2496	3.72E-05
75.3746	3.48E-05
75.4996	3.72E-05
75.6246	3.58E-05
75.7496	3.48E-05
75.8746	3.62E-05
75.9986	3.58E-05
76.1246	3.62E-05
76.2496	3.39E-05
76.3746	3.19E-05
76.4996	3.62E-05
76.6246	3.34E-05
76.7496	3.48E-05
76.8746	3.48E-05
76.9996	3.58E-05
77.1246	3.10E-05
77.2496	3.19E-05
77.3747	3.43E-05
77.4997	2.86E-05
77.6247	3.39E-05
77.7497	2.96E-05
77.8747	3.24E-05
77.9997	2.86E-05
78.1247	3.10E-05
78.2497	3.19E-05
78.3747	2.96E-05
78.4997	2.86E-05
78.6247	3.10E-05
78.7497	3.10E-05
78.8747	2.81E-05
78.9997	2.67E-05
79.1247	2.62E-05
79.2497	2.77E-05
79.3747	3.15E-05
79.4998	2.86E-05
79.6248	2.67E-05
79.7498	2.72E-05
79.8748	2.86E-05
79.9998	2.62E-05
80.1248	2.57E-05
80.2498	2.77E-05
80.3748	2.57E-05
80.4998	2.81E-05
80.6248	2.57E-05
80.7498	2.53E-05
80.8748	2.62E-05
80.9998	2.72E-05
81.1248	2.48E-05
81.2498	2.53E-05
81.3748	2.34E-05
81.4998	2.62E-05
81.6248	2.57E-05
81.7499	2.43E-05
81.8749	2.53E-05
81.9999	2.57E-05
82.1249	2.43E-05
82.2496	2.48E-05
82.3749	2.72E-05
82.4999	2.53E-05
82.6237	2.34E-05
82.7499	2.19E-05
82.8749	2.05E-05
82.9999	2.19E-05
83.1249	2.19E-05
83.2499	2.34E-05
83.3749	2.10E-05
83.4999	2.38E-05
83.6249	2.19E-05
83.7499	2.19E-05
83.875	2.10E-05
84	2.19E-05
84.125	2.24E-05
84.2493	2.29E-05
84.3742	2.05E-05
84.4991	2.15E-05
84.625	1.96E-05
84.75	1.91E-05
84.875	2.10E-05
85	2.19E-05
85	1.96E-05
