Photodiode Viewing Angle (Degrees) - Plot 0	Lock-in Signal Amplitude (V) - Plot 0
-9.49925	0.000447275
-8.99927	0.000450673
-8.49927	0.000449719
-7.99928	0.000448765
-7.49928	0.000450613
-6.99928	0.000453712
-6.49928	0.000451924
-5.99928	0.000452342
-5.49928	0.000456216
-4.9993	0.000452729
-4.4993	0.000454934
-3.99931	0.000459583
-3.49931	0.000454487
-2.99931	0.000454457
-2.49937	0.000455381
-1.99968	0.000455501
-1.49931	0.000456186
-0.999329	0.000454666
-0.499329	0.000457229
0.000656128	0.000454606
0.500656	0.000456961
1.00066	0.000457497
1.50066	0.000456722
2.00066	0.000459196
2.50064	0.000456007
3.00064	0.000457915
3.50063	0.000457736
4.00063	0.0004586
4.50063	0.00045708
5.00063	0.000460448
5.50063	0.00045863
6.00063	0.000456514
6.50061	0.000458183
7.00061	0.000453027
7.5006	0.00045711
8.0006	0.000453087
8.5006	0.000451328
9.0006	0.000452073
9.50059	0.000448318
10.0006	0.000453385
10.5006	0.000457289
11.0006	0.00044802
11.5006	0.000450285
12.0006	0.000453027
12.5006	0.000451298
13.0006	0.000449391
13.5006	0.000448974
14.0006	0.000447633
14.5006	0.000446649
15.0005	0.000443311
15.5005	0.000445696
16.0005	0.000442417
16.5005	0.000443729
17.0005	0.000441553
17.5005	0.000438662
18.0005	0.000440272
18.5005	0.000439854
19.0005	0.00043896
19.5005	0.000435861
20.0005	0.00043443
20.5005	0.000434728
21.0005	0.000431838
21.5005	0.000430616
22.0005	0.000427069
22.5005	0.000424983
23.0005	0.000429334
23.5005	0.000424447
24.0005	0.000427069
24.5005	0.000424
25.0005	0.000421258
25.5005	0.000418784
25.9997	0.000416847
26.5005	0.00041792
27.0005	0.000414701
27.5005	0.000414135
28.0005	0.000407638
28.5004	0.000409188
29.0004	0.000408681
29.5004	0.000405075
30.0004	0.000401886
30.5004	0.000401976
31.0004	0.000396343
31.5004	0.00039685
32.0004	0.000395508
32.5004	0.000389369
33.0004	0.00038773
33.5004	0.000387253
34.0004	0.000386091
34.5004	0.000377866
35.0004	0.000381948
35.5004	0.000377657
36.0004	0.000374885
36.5004	0.000372292
37.0004	0.000371547
37.5004	0.000367077
38.0004	0.000364782
38.5004	0.000362905
39.0004	0.000358822
39.5004	0.000357719
40.0004	0.000356318
40.5004	0.000352116
41.0003	0.00034556
41.5003	0.000345321
42.0003	0.000343593
42.5003	0.000339421
43.0001	0.00033641
43.4994	0.000334235
43.9993	0.000331583
44.4995	0.000328811
45.0003	0.000327231
45.5003	0.000321569
46.0003	0.000317039
46.5003	0.000311585
47.0003	0.000310006
47.5003	0.000306429
48.0003	0.000302197
48.5003	0.000298442
49.0003	0.000294568
49.5003	0.000293048
50.0003	0.000290545
50.5003	0.000287654
51.0003	0.000283392
51.5003	0.000279548
52.0003	0.000272008
52.5003	0.00027171
53.0003	0.000266166
53.5003	0.000263156
54.0002	0.000258477
54.5002	0.000258626
55.0002	0.000249775
55.5002	0.000247212
56.0002	0.000243128
56.5002	0.000239612
57.0002	0.000238539
57.5002	0.000235171
58.0002	0.000234039
58.5002	0.000227899
59	0.000225396
59.5002	0.000217975
60.0002	0.000217349
60.5002	0.00021422
61.0002	0.000209899
61.5002	0.000209154
62.0002	0.000199289
62.5002	0.000196368
63.0002	0.000193895
63.5002	0.000190617
64.0002	0.000188203
64.5002	0.000182719
65.0002	0.000179977
65.5002	0.000176043
66.0002	0.000172646
66.5001	0.000169368
67.0001	0.000164957
67.5001	0.000160188
68.0001	0.000158072
68.5001	0.000158221
69.0001	0.000151903
69.5001	0.000150473
70.0001	0.000145049
70.5001	0.000139476
71.0001	0.00013891
71.4987	0.000133992
71.9989	0.000132055
72.4988	0.000127316
73.0001	0.000122488
73.5001	0.000118375
74.0001	0.000117124
74.5001	0.000108272
75.0001	0.000106067
75.5001	0.000102252
76.0001	0.000100017
76.5001	9.59E-05
77.0001	9.09E-05
77.5001	9.10E-05
78.0001	8.60E-05
78.5001	7.76E-05
79	7.43E-05
79.5	7.04E-05
80	6.82E-05
80.5	6.51E-05
81	6.29E-05
81.5	5.75E-05
82	5.86E-05
82.5	5.72E-05
83	5.04E-05
83.5	4.92E-05
84	4.60E-05
84.5	3.37E-05
85	2.87E-05
85	2.43E-05
-9.49925	0.000451745
-8.99927	0.000451477
-8.49927	0.000453593
-7.99928	0.000453027
-7.50095	0.000450315
-7.00101	0.000454994
-6.49928	0.000453742
-5.99928	0.000454964
-5.49928	0.000455977
-4.9993	0.000455232
-4.4993	0.000453623
-3.99931	0.000455143
-3.49931	0.000454934
-2.99931	0.000459792
-2.49931	0.000459256
-1.99931	0.000458987
-1.49931	0.000459464
-0.999329	0.000457885
-0.499329	0.000457408
0.000656128	0.00045708
0.500656	0.000457646
1.00066	0.000457199
1.50066	0.000456901
2.00066	0.000459762
2.50064	0.000458034
3.00064	0.000454845
3.50063	0.00045565
4.00063	0.000456931
4.50063	0.000461848
5.00063	0.000456365
5.50063	0.000453981
6.00063	0.000458213
6.50061	0.000460209
7.00061	0.000457766
7.5006	0.000456842
8.0006	0.000457587
8.5006	0.000457199
9.0006	0.000455501
9.50059	0.000453444
10.0006	0.00045401
10.5006	0.00045556
11.0006	0.000451656
11.5006	0.000453265
12.0006	0.000449838
12.5006	0.000451209
13.0006	0.000451179
13.5006	0.000451388
14.0006	0.000449749
14.5006	0.000449063
15.0005	0.000445517
15.5005	0.00044802
16.0005	0.000444623
16.5005	0.000442745
17.0005	0.000444354
17.5005	0.000439795
18.0005	0.000437738
18.5005	0.00043905
19.0005	0.000436278
19.5005	0.000435652
20.0005	0.000434401
20.5005	0.00043455
21.0005	0.000434252
21.5005	0.000434013
22.0005	0.000431867
22.5005	0.000427367
23.0005	0.000433685
23.5005	0.000425132
24.0005	0.000427635
24.5005	0.000423344
25.0005	0.000423403
25.5005	0.000424625
26.0005	0.000418903
26.5005	0.000417234
27.0005	0.000415625
27.5005	0.000417264
27.9988	0.00041339
28.4987	0.000411185
29.0004	0.000406774
29.5004	0.000405373
30.0004	0.000403674
30.5004	0.000403346
31.0004	0.000400575
31.5004	0.000397118
32.0004	0.000394465
32.5004	0.000392975
33.0004	0.000392886
33.5004	0.000390979
34.0004	0.000386985
34.5004	0.000387492
35.0004	0.00038317
35.4994	0.00038165
35.9999	0.00037721
36.4994	0.000377359
37.0004	0.000376286
37.5004	0.000369819
38.0004	0.000367286
38.5004	0.000366988
39.0004	0.000365378
39.5004	0.000356587
40.0004	0.000357511
40.5004	0.000355722
41.0003	0.000350149
41.5003	0.000350835
42.0003	0.000346811
42.5003	0.00034404
43.0003	0.00033799
43.5003	0.000338109
44.0003	0.000333788
44.5003	0.000330241
45.0003	0.000329824
45.5003	0.000325682
46.0003	0.000316503
46.5003	0.00031537
47.0003	0.000311108
47.5003	0.000309976
48.0003	0.000301542
48.5003	0.000299813
49.0003	0.000297757
49.5003	0.000294091
50.0003	0.000292273
50.5003	0.000287892
51.0003	0.000283482
51.5003	0.000279101
52.0001	0.000274958
52.5	0.000275167
53.0003	0.000266822
53.5003	0.000262262
54.0002	0.000264289
54.5002	0.000261249
55.0002	0.000254991
55.5002	0.000251712
56.0002	0.000246556
56.5002	0.000243277
57.0002	0.000238241
57.5002	0.000237257
58.0002	0.00023088
58.5002	0.000227631
59.0002	0.000227869
59.5001	0.000220479
60.0002	0.00021729
60.5002	0.000211597
61.0002	0.000209243
61.5002	0.000207485
62.0002	0.000200779
62.5002	0.000197978
63.0002	0.000195743
63.5002	0.000189365
64.0002	0.000187666
64.5002	0.000183971
65.0002	0.000181527
65.5002	0.00017649
66.0002	0.000173242
66.5001	0.000170321
67.0001	0.000164659
67.5001	0.000165285
68.0001	0.000155986
68.5001	0.000153125
69.0001	0.000149877
69.5001	0.000144065
70.0001	0.000142396
70.5001	0.000138939
70.9996	0.00013438
71.4992	0.000134469
71.9991	0.000127704
72.5001	0.000123889
73.0001	0.000121057
73.5001	0.000116766
74.0001	0.000112653
74.5001	0.000107229
75.0001	0.00010255
75.5001	9.89E-05
76.0001	9.62E-05
76.5001	9.41E-05
77.0001	9.06E-05
77.5001	8.98E-05
78.0001	8.52E-05
78.5001	7.95E-05
79	7.54E-05
79.5	7.41E-05
80	7.17E-05
80.5	6.42E-05
81	6.34E-05
81.5	6.15E-05
82	5.61E-05
82.5	5.02E-05
83	4.82E-05
83.5	4.37E-05
84	4.24E-05
84.5	3.63E-05
85	3.33E-05
85	3.19E-05
-9.49925	0.000450226
-8.99927	0.000450851
-8.49927	0.000450077
-7.99928	0.000448616
-7.49928	0.000452848
-6.99928	0.000454905
-6.49928	0.000454666
-5.99928	0.000454785
-5.49928	0.000453265
-4.9993	0.000457766
-4.4993	0.000454636
-3.99931	0.000458421
-3.49931	0.000457468
-2.99931	0.000458242
-2.49931	0.000455083
-1.99931	0.000458213
-1.49931	0.000459464
-0.999329	0.000459285
-0.499329	0.00045562
0.000656128	0.000459822
0.500656	0.000459464
1.00066	0.000459196
1.50066	0.000460746
2.00066	0.000460716
2.50064	0.000460001
3.00064	0.000462266
3.50063	0.000459405
4.00063	0.000459285
4.50063	0.000456961
5.00063	0.000456901
5.50063	0.000458809
6.00063	0.000459196
6.50061	0.000457825
7.00061	0.000453772
7.5006	0.000459047
8.0006	0.000455709
8.5006	0.000456931
9.0006	0.000454845
9.50059	0.000456484
10.0006	0.000453444
10.5006	0.000453832
11.0006	0.000450226
11.5006	0.000451
12.0006	0.00045252
12.5006	0.000451984
13.0006	0.000450226
13.5006	0.00044805
14.0006	0.00044811
14.5004	0.000447454
15.0004	0.000449451
15.5005	0.000449749
16.0004	0.000446202
16.5003	0.000443788
17.0003	0.000442835
17.5	0.000440987
17.9999	0.000441464
18.5003	0.000440391
19.0005	0.000441315
19.5005	0.000435831
20.0005	0.000439228
20.5005	0.000435682
21.0005	0.000431599
21.5005	0.000434132
22.0005	0.000431689
22.5005	0.000433298
23.0005	0.000429364
23.5005	0.000427278
24.0005	0.00042689
24.5005	0.000424923
25.0005	0.000422033
25.5005	0.000421615
26.0005	0.00042084
26.5005	0.000416758
27.0005	0.000415267
27.5005	0.00041643
28.0005	0.000412973
28.5004	0.000412347
29.0004	0.000408472
29.5004	0.000407638
30.0004	0.000406506
30.5004	0.000404181
31.0004	0.000400038
31.5004	0.000401469
32.0004	0.000399234
32.5004	0.000393065
33.0004	0.00039226
33.5004	0.000392767
34.0004	0.000389041
34.5004	0.00038624
35.0004	0.000385644
35.5004	0.000383737
36.0004	0.000379415
36.5004	0.000377776
37.0004	0.00037271
37.5004	0.000371369
38.0004	0.000369074
38.5004	0.000366332
39.0004	0.000364335
39.5004	0.000359239
40.0004	0.00035763
40.5004	0.000355454
41.0003	0.00035012
41.5003	0.000351252
42.0003	0.000345798
42.5003	0.000340464
43.0003	0.00033951
43.5003	0.000336738
44.0003	0.000332626
44.5003	0.000327112
45.0003	0.000327082
45.5003	0.000325413
46.0003	0.00031832
46.5003	0.000317546
46.9994	0.000314565
47.4988	0.000307621
47.9987	0.000305446
48.5003	0.000302942
49.0003	0.000296833
49.5003	0.000295611
50.0003	0.000292661
50.5003	0.000284316
51.0003	0.000281038
51.5003	0.000279667
52.0003	0.000279101
52.5003	0.000273051
53.0003	0.000270667
53.5003	0.0002656
54.0002	0.00026411
54.5002	0.000258358
55.0002	0.000254663
55.5002	0.000247629
56.0002	0.000246825
56.5002	0.00024283
57.0002	0.000237525
57.5002	0.000236184
58.0002	0.000233502
58.5002	0.000227065
59.0002	0.000223936
59.5002	0.000220538
60.0002	0.000216753
60.5002	0.00021273
61.0002	0.000210703
61.5002	0.000208111
62.0002	0.000205309
62.5002	0.000195743
63.0002	0.000195027
63.5001	0.000189365
64.0002	0.000187547
64.5002	0.00018865
65.0002	0.000180305
65.5002	0.000179471
66.0002	0.000173182
66.5001	0.000174345
66.9989	0.000168295
67.4991	0.000163496
67.9988	0.000157685
68.498	0.000155122
68.9982	0.000151188
69.4982	0.000146986
70.0001	0.000143887
70.5001	0.000138582
71.0001	0.000140161
71.5001	0.000129999
72.0001	0.000131548
72.5001	0.000124664
73.0001	0.000121505
73.5001	0.000116557
74.0001	0.00011164
74.4995	0.000109256
75.0001	0.000104815
75.5001	0.000103295
76.0001	9.72E-05
76.5001	9.44E-05
77.0001	9.09E-05
77.5001	8.46E-05
78.0001	8.17E-05
78.5001	7.79E-05
79	7.48E-05
79.5	7.22E-05
80	7.05E-05
80.5	6.58E-05
81	6.15E-05
81.5	5.82E-05
82	5.86E-05
82.5	5.25E-05
83	4.70E-05
83.5	4.43E-05
84	4.35E-05
84.5	3.42E-05
85	3.26E-05
85	3.02E-05
-9.49925	0.000451418
-8.99927	0.000449749
-8.49927	0.000449689
-7.99928	0.000450911
-7.49928	0.000452878
-6.99928	0.000450762
-6.49928	0.000454368
-5.99928	0.000453534
-5.49928	0.000456663
-4.9993	0.000457795
-4.4993	0.000458362
-3.99931	0.000457408
-3.49931	0.000460269
-2.99931	0.000456961
-2.49931	0.000453414
-1.99931	0.000455083
-1.49931	0.000459911
-0.999329	0.000457318
-0.499329	0.000459256
0.000656128	0.000459971
0.500656	0.000459226
1.00066	0.000457974
1.50066	0.000460418
2.00066	0.000457348
2.50064	0.000462236
3.00064	0.000457855
3.50063	0.000461431
4.0006	0.000463011
4.4991	0.00046006
5.00063	0.000461491
5.50063	0.000457318
6.00063	0.000456097
6.50061	0.000455888
7.00061	0.000455948
7.5006	0.000458928
8.0006	0.000456067
8.5006	0.000452789
9.0006	0.000453861
9.50059	0.000453861
10.0006	0.000455113
10.5006	0.00045258
11.0006	0.00044954
11.5006	0.000452818
12.0006	0.000452342
12.5006	0.000450434
13.0006	0.000448527
13.5006	0.000450881
14.0006	0.000451149
14.5006	0.00044951
15.0005	0.000446053
15.5005	0.000444533
16.0005	0.00044799
16.5005	0.000442656
17.0005	0.000442835
17.5005	0.000442149
18.0004	0.00044051
18.5002	0.000438185
19.0004	0.000437947
19.5005	0.000434401
20.0005	0.000436874
20.5005	0.000432553
21.0005	0.00043449
21.5005	0.000430407
22.0005	0.000432136
22.5005	0.000432851
23.0005	0.000430884
23.5005	0.000427546
24.0005	0.000426473
24.5005	0.000424923
25.0005	0.000418874
25.5005	0.000422062
26.0005	0.000419052
26.5005	0.000418963
27.0005	0.000413837
27.5005	0.000415267
28.0005	0.000412079
28.5004	0.000407876
29.0004	0.000409218
29.5004	0.000406953
30.0004	0.00040892
30.5004	0.000401022
31.0004	0.000401231
31.5004	0.000397922
32.0004	0.000397297
32.5004	0.000393482
33.0004	0.000390889
33.5004	0.000389935
34.0004	0.000387939
34.5004	0.000385584
35.0004	0.000386925
35.5004	0.000379981
35.9982	0.000380905
36.5004	0.000375362
37.0004	0.000374021
37.5004	0.000367882
38.0004	0.000368448
38.5004	0.00036821
39.0004	0.000365408
39.5004	0.000358673
40.0004	0.000355603
40.5004	0.000357332
41.0003	0.000352593
41.5003	0.000348659
42.0003	0.000347408
42.5003	0.000342639
43.0003	0.000339301
43.5003	0.000333222
44.0003	0.000332238
44.5003	0.000330241
45.0003	0.000326039
45.5003	0.000321718
46.0003	0.00032142
46.5003	0.000313642
47.0003	0.000314536
47.5003	0.000308188
48.0003	0.000307979
48.5003	0.000302525
49.0003	0.000296714
49.5003	0.000293912
50.0003	0.000291528
50.5003	0.000287207
51.0003	0.000284227
51.5003	0.000280889
51.9992	0.000277581
52.4997	0.000272067
52.9989	0.000269653
53.5003	0.000267358
54.0002	0.000261428
54.5002	0.000259014
55.0002	0.000253441
55.5002	0.000251861
56.0002	0.000249507
56.5002	0.000242562
57.0002	0.000238092
57.5002	0.000237198
58.0002	0.000232399
58.5002	0.00022924
59.0002	0.000225068
59.5002	0.000223101
60.0002	0.000219495
60.5002	0.000212968
61.0002	0.000208498
61.5002	0.000205816
62.0002	0.000202478
62.4992	0.000200064
63.0002	0.000196964
63.5002	0.000190974
64.0002	0.000186861
64.5002	0.000184
65.0002	0.000185133
65.5002	0.000177533
66.0002	0.000173808
66.5001	0.000170887
67.0001	0.000168563
67.5001	0.000165016
67.9999	0.000161321
68.4997	0.000154705
68.9998	0.00015244
69.4996	0.000147373
70.0001	0.000144483
70.5001	0.000141055
71.0001	0.000136525
71.5001	0.000135065
72.0001	0.000130803
72.5001	0.000126512
73.0001	0.000117809
73.5001	0.000118494
74.0001	0.000117183
74.5001	0.0001117
75.0001	0.000106007
75.5001	0.000100792
76.0001	9.52E-05
76.5001	9.32E-05
77.0001	9.19E-05
77.5001	9.04E-05
78.0001	8.15E-05
78.5001	8.07E-05
79	7.83E-05
79.5	7.24E-05
79.999	6.81E-05
80.4984	6.74E-05
81	6.57E-05
81.5	5.94E-05
82	5.38E-05
82.5	5.04E-05
83	5.03E-05
83.5	4.57E-05
84	4.12E-05
84.5	3.76E-05
85	3.16E-05
85	3.37E-05
-9.49971	0.000448557
-8.99927	0.000450941
-8.49927	0.000453474
-7.99928	0.000450792
-7.49928	0.000454338
-6.99928	0.000456395
-6.49928	0.000454934
-5.99928	0.000455024
-5.49928	0.000456454
-4.9993	0.000456037
-4.4993	0.000457766
-3.99931	0.00045854
-3.49931	0.000459673
-2.99931	0.000461848
-2.49931	0.000459315
-1.99931	0.000458838
-1.49931	0.000457468
-0.999329	0.000459017
-0.499741	0.000461312
0.000213623	0.000457855
0.500656	0.000459613
1.00066	0.000458362
1.50066	0.000459732
2.00066	0.000459226
2.50064	0.000458779
3.00064	0.000459166
3.50063	0.000459196
4.00063	0.00046006
4.50063	0.000459583
5.00063	0.000459822
5.50063	0.000457199
6.00063	0.000458242
6.50061	0.000456782
7.00061	0.00045556
7.5006	0.000454845
8.0006	0.000458004
8.49919	0.000455203
8.99922	0.000452431
9.50059	0.000456216
10.0006	0.000453951
10.5006	0.000454666
11.0006	0.000451149
11.5006	0.000452938
12.0006	0.00045261
12.5006	0.000450494
13.0006	0.000452133
13.5006	0.000449451
14.0006	0.00044805
14.5006	0.000448735
15.0005	0.000445666
15.5005	0.000445159
16.0005	0.000449749
16.5005	0.000445219
17.0005	0.000442209
17.5005	0.000441106
18.0005	0.000437679
18.5005	0.000438722
19.0005	0.000439199
19.5005	0.000437262
20.0005	0.00043893
20.5005	0.00043604
21.0005	0.000433983
21.5005	0.000433864
22.0005	0.000431182
22.5005	0.000430794
23.0005	0.000429662
23.5005	0.000428559
24.0005	0.00042695
24.5005	0.000423642
25.0005	0.000426801
25.5005	0.000422062
26.0005	0.000418754
26.5005	0.00041947
27.0005	0.000418784
27.5005	0.000416489
28.0005	0.000408472
28.5004	0.0004088
29.0004	0.000407727
29.5004	0.000408323
30.0004	0.000408622
30.5004	0.000405045
31.0004	0.000400694
31.5004	0.000402631
32.0004	0.000397148
32.5004	0.000395151
33.0004	0.000393631
33.5004	0.000392618
34.0004	0.000388565
34.5004	0.00038621
35.0004	0.000382157
35.5004	0.000381948
36.0004	0.000381293
36.5004	0.000377597
37.0004	0.00037274
37.5004	0.000374408
38.0004	0.000367822
38.5004	0.000367435
39.0004	0.000364484
39.5004	0.000360699
40.0004	0.000358822
40.5004	0.00035456
41.0003	0.000351341
41.5003	0.000348987
42.0003	0.000345888
42.5003	0.000338526
43.0003	0.000340553
43.5003	0.000334354
44.0003	0.000331135
44.5003	0.000330837
45.0003	0.000325294
45.5003	0.000321092
46.0003	0.000320168
46.5003	0.000313969
47.0003	0.000314446
47.5003	0.000308277
48.0003	0.000306489
48.5003	0.000306161
49.0003	0.000302287
49.5003	0.000296863
50.0003	0.000293525
50.5003	0.000289502
51.0003	0.000285478
51.5003	0.000278922
52.0003	0.000277014
52.5003	0.000270428
53.0003	0.000272127
53.5003	0.000266911
54.0002	0.000261309
54.5002	0.000258448
55.0002	0.000254454
55.5002	0.000248851
56.0002	0.000247093
56.5002	0.000245871
57.0002	0.000241668
57.5002	0.000237227
58.0002	0.000232459
58.5002	0.000228227
59.0002	0.000224621
59.5002	0.000222535
60.0002	0.000216008
60.5002	0.00021416
61.0002	0.000208558
61.5002	0.000207038
62.0002	0.000204802
62.5002	0.000197471
63.0002	0.000195236
63.5002	0.000192017
64.0002	0.000189752
64.5002	0.000185848
65.0002	0.000183494
65.5002	0.0001795
66.0002	0.000176222
66.5001	0.000171156
67.0001	0.000168414
67.5001	0.000162006
68.0001	0.000159563
68.5001	0.000158847
69.0001	0.000153066
69.5001	0.000148476
70.0001	0.000145168
70.5001	0.000141145
71.0001	0.000138463
71.5001	0.00013432
72.0001	0.000129552
72.5001	0.000122369
73.0001	0.000118822
73.5001	0.000119448
74.0001	0.000115723
74.5001	0.000109971
75.0001	0.000107587
75.5001	0.000103713
75.9999	9.74E-05
76.5001	9.89E-05
77.0001	9.19E-05
77.5001	8.89E-05
78.0001	8.79E-05
78.5001	7.92E-05
79	7.61E-05
79.5	7.69E-05
80	6.74E-05
80.4985	6.42E-05
81	6.03E-05
81.4985	6.11E-05
82	5.45E-05
82.5	5.07E-05
83	5.20E-05
83.5	4.49E-05
84	4.10E-05
84.5	3.59E-05
84.9941	3.15E-05
85	3.04E-05
