Photodiode Viewing Angle (Degrees) - Plot 0	Lock-in Signal Amplitude (V) - Plot 0
-29.9991	0.0014658
-29.4991	0.001472
-29.0003	0.00148154
-28.4991	0.00148774
-27.9991	0.00150252
-27.4991	0.00150634
-26.9991	0.00151683
-26.4991	0.00152589
-25.9991	0.00153209
-25.4991	0.00153685
-24.9991	0.00154496
-24.4992	0.00155021
-23.9992	0.00155736
-23.4992	0.00156594
-22.9992	0.00157405
-22.4992	0.00157834
-21.9992	0.0015874
-21.4992	0.00158788
-20.9992	0.00159646
-20.4992	0.00160647
-19.9992	0.00160933
-19.4992	0.00161553
-18.9992	0.00161982
-18.4992	0.00162411
-17.9992	0.00163413
-17.4992	0.00163985
-16.9992	0.00164176
-16.4992	0.00164843
-15.9992	0.00165129
-15.4992	0.00165702
-14.9992	0.00166083
-14.4992	0.00166655
-13.9992	0.00167037
-13.4992	0.00167943
-12.9992	0.00167514
-12.4992	0.0016842
-11.9992	0.00168515
-11.4993	0.00169373
-10.9993	0.00169516
-10.4993	0.00169612
-9.99926	0.0016985
-9.49926	0.00170613
-8.99927	0.00170518
-8.49928	0.00170851
-7.99928	0.00170899
-7.49928	0.0017171
-6.99928	0.0017171
-6.49929	0.00171901
-5.99929	0.0017252
-5.49929	0.00172473
-4.9993	0.00172711
-4.49965	0.0017295
-3.99931	0.00173093
-3.49931	0.00173188
-2.99931	0.00173379
-2.49932	0.00173474
-1.99932	0.00173236
-1.49932	0.00173808
-0.999329	0.0017376
-0.499336	0.00174094
0.000663757	0.00173951
0.500656	0.00174285
1.00065	0.00173999
1.50065	0.00173617
2.00065	0.00174094
2.50064	0.00174189
3.00063	0.00173856
3.50063	0.00174046
4.00063	0.00173522
4.50063	0.00174046
5.00062	0.00174189
5.50062	0.00174189
6.00062	0.00173856
6.50061	0.00174046
7.0006	0.00173856
7.5006	0.00173617
8.00028	0.00173093
8.5006	0.00173474
9.00059	0.00173379
9.50059	0.00173379
10.0006	0.00172997
10.5006	0.00173474
11.0006	0.00173045
11.5006	0.00173188
12.0006	0.00172902
12.5006	0.00172997
13.0006	0.00172854
13.5006	0.00172711
14.0003	0.00173283
14.5005	0.00172568
15.0005	0.00172568
15.5005	0.00172473
16.0005	0.00172663
16.5005	0.00172377
17.0005	0.00172854
17.5005	0.00172616
18.0005	0.00172568
18.5005	0.00172616
19.0005	0.0017295
19.5005	0.00173331
20.0005	0.00173665
20.5005	0.00173951
21.0005	0.00174666
21.5005	0.00174857
22.0005	0.00175286
22.5005	0.00175381
23.0005	0.00175954
23.5005	0.00175954
24.0005	0.0017686
24.5005	0.00177527
25.0005	0.00178815
25.5005	0.00180198
26.0005	0.00181485
26.5003	0.00183106
27.0005	0.00185109
27.5005	0.00185967
28.0004	0.00188876
28.5004	0.00190879
29.0004	0.00194121
29.5004	0.00195886
30.0004	0.00198175
30.5004	0.00200988
31.0004	0.00203945
31.5004	0.00207187
32.0004	0.00211002
32.5003	0.00213768
33.0004	0.00219585
33.5004	0.00225307
34.0004	0.00232174
34.5004	0.00239088
35.0004	0.00247766
35.5004	0.00254633
36.0004	0.0026188
36.5004	0.00269844
37.0004	0.00279237
37.5004	0.00287296
38.0004	0.0029607
38.5003	0.00308134
39.0004	0.00323965
39.5004	0.00337411
40.0004	0.00351574
40.5003	0.00366308
41.0003	0.00378038
41.5003	0.00389768
42.0003	0.00402644
42.5003	0.00419334
43.0003	0.0043216
43.5003	0.00448039
44.0003	0.00459626
44.5003	0.00469211
45.0003	0.00476268
45.5003	0.00484422
46.0003	0.00494435
46.5003	0.00497678
47.0003	0.00501397
47.5003	0.00500157
48.0003	0.00498775
48.4991	0.00490716
49.0003	0.00479701
49.5003	0.00466636
50.0003	0.004509
50.5003	0.0043793
51.0003	0.00427821
51.5003	0.00414708
52.0003	0.00402263
52.5003	0.00387003
53.0002	0.00373079
53.5002	0.00356199
54.0002	0.00343944
54.5002	0.00328876
55.0002	0.00311567
55.5002	0.0029688
56.0002	0.00283338
56.5002	0.00270416
57.0002	0.00258304
57.5002	0.00248386
58.0002	0.00239278
58.5002	0.00229599
59.0002	0.0022092
59.5002	0.00212051
60.0002	0.00203563
60.5002	0.00196745
61.0002	0.00188065
61.5002	0.00179244
62.0002	0.00172187
62.5002	0.00163747
63.0002	0.0015607
63.5002	0.00148154
64.0002	0.00141478
64.5002	0.00135422
65.0002	0.00129557
65.5002	0.00123978
66.0001	0.00118113
66.5001	0.00113154
67.0001	0.00108195
67.5001	0.00103761
68.0001	0.000997551
68.5001	0.000962261
69.0001	0.00092316
69.5001	0.000886921
70.0001	0.000852589
70.5001	0.000818256
71.0001	0.000785831
71.4983	0.000751976
72.0001	0.000717644
72.5001	0.000688557
73.0001	0.000658039
73.5001	0.000628952
74.0001	0.000602249
74.5001	0.000575546
75.0001	0.000552181
75.5001	0.000530723
76.0001	0.000507358
76.5001	0.000489239
77.0001	0.000467779
77.5001	0.000454905
78.0001	0.000430586
78.5001	0.000408651
79	0.000388624
79.5	0.000370504
80	0.00034857
80.5	0.000328066
81	0.000306608
81.5	0.000284197
82	0.000256063
82.5	0.000223638
83	0.000189305
83.5	0.000158311
84	0.00013733
84.5	0.00012827
85	0.000115872
85	0.000113965
