Photodiode Viewing Angle (Degrees) - Plot 0	Lock-in Signal Amplitude (V) - Plot 0
-55.4989	0.000693802
-54.9989	0.000692252
-54.4989	0.000693087
-53.9989	0.000693921
-53.4989	0.000700001
-52.9989	0.000709776
-52.4989	0.000709657
-51.9989	0.000714067
-51.4989	0.000722174
-51.0041	0.000725273
-50.4989	0.00073171
-49.9989	0.000738744
-49.4989	0.000748638
-48.999	0.000754002
-48.499	0.000757102
-47.999	0.000766996
-47.499	0.000770334
-46.9992	0.000773672
-46.499	0.000778202
-45.999	0.000780467
-45.499	0.000781659
-44.999	0.000789527
-44.499	0.000796679
-43.999	0.000802163
-43.499	0.000809077
-42.999	0.000820283
-42.499	0.000826124
-41.999	0.000827316
-41.499	0.000831846
-40.999	0.000839714
-40.499	0.00084031
-39.999	0.000848535
-39.499	0.000851158
-38.999	0.000860576
-38.499	0.000862364
-37.9991	0.000867251
-37.4991	0.000874523
-36.9991	0.000879649
-36.4991	0.000885252
-35.9991	0.000892166
-35.4991	0.000896577
-34.9991	0.000902895
-34.4991	0.00090671
-33.9991	0.000914458
-33.4991	0.000919107
-32.9991	0.00092781
-32.4991	0.000939135
-31.9991	0.000943784
-31.4991	0.000954274
-30.9991	0.000960592
-30.4991	0.000965599
-29.9991	0.000967506
-29.4991	0.00097812
-28.9991	0.000983246
-28.4991	0.000983246
-27.9991	0.000990875
-27.4991	0.00099159
-26.9991	0.000994451
-26.4991	0.000996716
-25.9991	0.000997789
-25.4991	0.0010022
-24.9991	0.0010028
-24.4991	0.00100959
-23.9991	0.00101186
-23.4992	0.00101829
-22.9992	0.00102318
-22.4992	0.00102223
-21.9992	0.00102258
-21.4992	0.00103427
-20.9995	0.00103725
-20.4992	0.0010413
-19.9992	0.00104833
-19.4992	0.00105572
-18.9992	0.00105918
-18.4992	0.00106157
-17.9992	0.00106645
-17.4992	0.00107349
-16.9992	0.00107384
-16.4992	0.00108183
-15.9992	0.00108362
-15.4992	0.00108803
-14.9992	0.00109351
-14.4992	0.00109566
-13.9992	0.00110031
-13.4992	0.00110806
-12.9992	0.00111116
-12.4992	0.0011145
-11.9992	0.00111831
-11.4993	0.00112165
-10.9993	0.00112832
-10.4993	0.00113369
-9.99927	0.00113512
-9.49927	0.0011375
-8.99928	0.00113869
-8.49928	0.00114144
-7.99928	0.00114167
-7.49928	0.00114382
-6.99928	0.00114704
-6.4993	0.00114656
-5.9993	0.00114966
-5.4993	0.00115312
-4.99931	0.00115777
-4.49931	0.00115824
-3.99931	0.00116206
-3.49931	0.00116802
-2.99931	0.00117124
-2.49933	0.00117303
-1.99933	0.00118113
-1.49934	0.00118459
-0.999336	0.0011915
-0.499336	0.00119723
0.000656128	0.00119878
0.500656	0.0012045
1.00066	0.00120426
1.50064	0.00121141
2.00064	0.00121499
2.50063	0.00121797
3.00063	0.00122095
3.50063	0.00121785
4.00063	0.00122107
4.50063	0.00122488
5.00063	0.00122774
5.50062	0.0012287
6.0006	0.00123084
6.5006	0.00123502
7.0006	0.00123823
7.5006	0.00123335
8.0006	0.00124157
8.5006	0.00123597
9.00024	0.00124288
9.50059	0.00123871
10.0006	0.0012436
10.5006	0.00123978
11.0006	0.00124515
11.5006	0.00124515
12.0006	0.00124729
12.5006	0.00124777
13.0006	0.00124682
13.5006	0.00124932
14.0005	0.00125063
14.5005	0.00125469
15.0005	0.00125135
15.5005	0.00125373
16.0005	0.00125385
16.5005	0.00124932
17.0005	0.00124849
17.5005	0.0012517
18.0005	0.00125385
18.5005	0.00125671
19.0005	0.00126291
19.5005	0.00127161
20.0005	0.00127495
20.5005	0.00128389
21.0005	0.00128759
21.5005	0.00129271
22.0005	0.00129307
22.5005	0.0012951
23.0005	0.00130034
23.5005	0.00130392
24.0005	0.00130261
24.5005	0.00130714
25.0005	0.00130785
25.5005	0.00131322
26.0005	0.00132168
26.5005	0.00132037
27.0003	0.00132705
27.5004	0.00132919
28.0004	0.00132824
28.5004	0.00133134
29.0004	0.00133587
29.5004	0.00133873
30.0004	0.00134302
30.5004	0.00134564
31.0004	0.00135685
31.5004	0.00135923
32.0004	0.00136257
32.5004	0.00136805
33.0004	0.00137473
33.5004	0.00138427
34.0004	0.00138689
34.5004	0.00139499
35.0004	0.00140119
35.5004	0.00140668
36.0004	0.00141049
36.5004	0.00141645
37.0004	0.00142265
37.5004	0.00143529
38.0004	0.00144339
38.5004	0.00144745
39.0004	0.00145794
39.5004	0.00146175
40.0003	0.00146819
40.5003	0.00147916
41.0003	0.0014844
41.5003	0.00149203
42.0003	0.00149585
42.5003	0.00150753
43.0003	0.00151373
43.5002	0.00151969
44.0003	0.00153185
44.5003	0.00154138
45.0003	0.00155426
45.5003	0.00156523
46.0003	0.00157524
46.5003	0.00159264
47.0003	0.00161076
47.5003	0.00163008
48.0003	0.00164986
48.5003	0.00167084
49.0003	0.00168467
49.4996	0.00171066
50.0003	0.0017221
50.4996	0.00173903
51.0003	0.00175453
51.5003	0.00177837
52.0003	0.00180126
52.5002	0.00182367
53.0002	0.00185061
53.5002	0.00186682
54.0002	0.00189067
54.5002	0.00192405
54.9999	0.00194717
55.4999	0.00197364
56.0002	0.00199772
56.4998	0.00202943
57.0002	0.00205065
57.5002	0.00207473
58.0002	0.00210764
58.5002	0.00214197
59.0002	0.00219132
59.5002	0.00220586
60.0002	0.002239
60.4991	0.00229074
61.0002	0.00233413
61.5002	0.00237371
62.0002	0.00242116
62.5002	0.00246264
63.0002	0.00250365
63.5002	0.00256087
64.0002	0.00261857
64.5002	0.00268079
65.0002	0.0027485
65.5001	0.00281478
66.0001	0.00287344
66.5001	0.0029247
67.0001	0.00297667
67.5001	0.00303675
68.0001	0.00310256
68.5001	0.00316741
69.0001	0.00324489
69.5001	0.00332214
70.0001	0.00341059
70.5001	0.00349118
71.0001	0.00356175
71.5001	0.00366427
72.0001	0.00374033
72.4996	0.00378157
73.0001	0.00381853
73.5001	0.00385763
74.0001	0.0039034
74.5001	0.00394991
75.0001	0.00401691
75.5001	0.00404575
76.0001	0.00409415
76.5001	0.00414398
77.0001	0.00417569
77.5001	0.00418761
78	0.00417235
78.5	0.00414065
79	0.00413826
79.5	0.00410226
80	0.00407675
80.5	0.00399187
81	0.00390747
81.5	0.00379874
82	0.00365593
82.5	0.00351335
83	0.00331976
83.5	0.00297715
84	0.00256135
84.5	0.00210549
85	0.00166202
85	0.00123907
-40.499	0.00110222
-39.999	0.00111032
-39.499	0.00111604
-38.999	0.0011232
-38.4991	0.0011325
-37.9991	0.00113941
-37.4991	0.00114585
-36.9991	0.00115205
-36.4994	0.00116444
-35.9991	0.00116993
-35.4991	0.00117541
-34.9991	0.00118376
-34.4991	0.00119067
-33.9991	0.0011952
-33.4991	0.00120235
-32.9991	0.00120879
-32.4991	0.00121856
-31.9991	0.00122572
-31.4991	0.00123192
-30.9991	0.00123788
-30.4991	0.00124455
-29.9991	0.00125004
-29.4991	0.0012517
-28.9991	0.00126506
-28.4991	0.00127459
-27.9991	0.00128389
-27.4991	0.001292
-26.9991	0.00129772
-26.4991	0.00130225
-25.9991	0.00130487
-25.4991	0.00131107
-24.9991	0.00131202
-24.4991	0.00132275
-23.9992	0.00132538
-23.4992	0.00133062
-22.9992	0.00133754
-22.4992	0.00134207
-21.9992	0.00134803
-21.4992	0.00135136
-20.9992	0.0013609
-20.4992	0.00136424
-19.9992	0.00136495
-19.4992	0.00137234
-18.9992	0.00138069
-18.4992	0.0013845
-17.9992	0.0013938
-17.4992	0.00140119
-16.9992	0.00141145
-16.4992	0.00141931
-15.9992	0.00142265
-15.4992	0.00143219
-14.9992	0.00143266
-14.4992	0.00143958
-13.9992	0.0014422
-13.4992	0.00145174
-12.9993	0.00145317
-12.5007	0.00145436
-12.0003	0.00145674
-11.4993	0.0014577
-10.9993	0.00146127
-10.4993	0.00145937
-9.99927	0.00145984
-9.49927	0.00146151
-8.99928	0.00146485
-8.49928	0.00146819
-7.99928	0.00146867
-7.49928	0.00147296
-6.99929	0.00147939
-6.4993	0.00147773
-5.99931	0.00148583
-5.49931	0.00148965
-4.99931	0.00149585
-4.49931	0.00150038
-3.99931	0.00150133
-3.49931	0.0015061
-2.99932	0.00150896
-2.49932	0.00151087
-1.99934	0.00151802
-1.49934	0.00151754
-0.999336	0.00152112
-0.499344	0.00152589
0.000656128	0.00152851
0.500656	0.00152446
1.00065	0.00152922
1.50065	0.00152612
2.00063	0.00153113
2.50063	0.0015359
3.00063	0.00153805
3.50063	0.00153805
4.00063	0.00154186
4.50062	0.00154067
5.00062	0.00154115
5.50062	0.00154067
6.0006	0.00154281
6.5006	0.00154115
7.00044	0.00154806
7.5006	0.00155092
8.00053	0.00154901
8.50059	0.00155307
9.00059	0.00155235
9.50059	0.00155021
10.0006	0.00154854
10.5006	0.00154949
11.0006	0.00155092
11.5006	0.00155497
12.0006	0.0015595
12.5006	0.00156523
13.0006	0.00157405
13.5005	0.00157786
14.0005	0.00158191
14.5005	0.0015812
15.0005	0.00158954
15.5005	0.00159026
16.0005	0.00159026
16.5005	0.00159121
17.0005	0.00159384
17.5005	0.00159694
18.0005	0.00159288
18.5005	0.00159169
19.0005	0.00158931
19.5005	0.00158835
20.0005	0.00158072
20.5005	0.0015843
21.0004	0.00158335
21.5005	0.00158621
22.0005	0.00158406
22.5005	0.00158263
23.0005	0.00158454
23.5005	0.00157929
24.0005	0.00158001
24.5005	0.00158311
25.0005	0.00158144
25.5005	0.00157953
26.0005	0.00157691
26.5005	0.00157619
27.0004	0.0015719
27.5004	0.0015719
28.0004	0.0015657
28.5004	0.00156451
29.0004	0.00156332
29.5004	0.00156403
30.0004	0.00156356
30.5004	0.00156141
31.0004	0.00155736
31.4989	0.0015533
32.0004	0.00154186
32.5004	0.00154043
33.0004	0.00153113
33.5004	0.00153423
34.0004	0.00153185
34.5004	0.00153733
35.0004	0.00154687
35.5004	0.00155211
36.0004	0.00155235
36.5004	0.00155569
37.0004	0.00155569
37.5004	0.00155783
38.0004	0.00155259
38.5004	0.00155187
39.0004	0.00154663
39.5004	0.00154639
40.0003	0.00155021
40.5003	0.00154997
41.0003	0.00155021
41.5003	0.00155235
42.0003	0.00155211
42.5003	0.00155402
43.0003	0.00155426
43.5003	0.00155259
44.0003	0.00154734
44.5003	0.0015452
45.0003	0.00154734
45.5003	0.00154639
46.0003	0.00154186
46.5003	0.00154138
47.0003	0.00154138
47.5003	0.00154472
48.0003	0.00154687
48.5003	0.00155164
49.0003	0.00155497
49.5003	0.0015564
50.0003	0.00155855
50.5003	0.00155521
51.0003	0.00155235
51.5003	0.00155474
52.0003	0.00155617
52.5002	0.0015607
53.0002	0.00156475
53.5002	0.00156403
54.0002	0.00155998
54.5002	0.0015545
55.0002	0.0015514
55.5002	0.00155378
56.0002	0.00155259
56.5002	0.00155092
57.0002	0.00154639
57.5002	0.00155307
58.0002	0.00155283
58.5002	0.0015576
59.0002	0.00156523
59.5002	0.00156832
60.0002	0.00157667
60.5002	0.00157667
61.0002	0.00157953
61.5002	0.00158168
62.0002	0.00158263
62.5002	0.00158001
63.0002	0.00157667
63.5002	0.00158454
64.0002	0.00158048
64.5002	0.00157667
65.0001	0.00158215
65.5001	0.00158692
66.0001	0.00158859
66.5001	0.00157953
67.0001	0.00155879
67.5001	0.0015483
68.0001	0.00153638
68.5001	0.00152803
69.0001	0.00151397
69.5001	0.0014993
70.0001	0.00149442
70.5001	0.00148166
71.0001	0.00146449
71.5001	0.00144506
72.0001	0.00143088
72.5001	0.00141669
73.0001	0.00139881
73.4995	0.00137711
73.9994	0.00135303
74.4998	0.0013274
74.9991	0.00130809
75.5001	0.00129259
76.0001	0.0012765
76.5001	0.00125337
77.0001	0.00123084
77.5	0.0012045
78	0.00117362
78.5	0.00114442
79	0.00111235
79.5	0.00107921
80	0.00105012
80.5	0.00101841
81	0.000980027
81.4992	0.000929717
81.999	0.000883941
82.5	0.000849012
83	0.000801567
83.5	0.000751857
84	0.000703219
84.5	0.000648443
85	0.000567023
85	0.000466766
-25.4993	0.00158478
-24.9992	0.00158597
-24.4994	0.0015905
-23.9993	0.00159622
-23.4994	0.00160385
-23.0004	0.00161172
-22.4992	0.00162006
-21.9992	0.00162984
-21.4992	0.00163508
-20.9992	0.00164295
-20.4992	0.00164748
-19.9992	0.00164843
-19.4992	0.0016482
-18.9992	0.00165368
-18.4992	0.00166012
-18.0001	0.00166679
-17.5001	0.00166536
-16.9992	0.00166965
-16.4992	0.00167752
-15.9992	0.001678
-15.4992	0.00168634
-14.9992	0.00168706
-14.4992	0.00170399
-13.9992	0.00171114
-13.4992	0.00172187
-12.9992	0.00173522
-12.4992	0.00173927
-11.9992	0.00174213
-11.4993	0.00174356
-10.9993	0.00174332
-10.4993	0.00174523
-9.99925	0.00174738
-9.49925	0.00175358
-8.99927	0.00175501
-8.49927	0.00175644
-7.99928	0.00176144
-7.49928	0.00175334
-6.99928	0.00175977
-6.49928	0.00175763
-5.99928	0.00176121
-5.49928	0.00176001
-4.9993	0.00176073
-4.4993	0.00176168
-3.99931	0.00176597
-3.49931	0.00177098
-2.99931	0.00177432
-2.49931	0.00178004
-1.99931	0.00179005
-1.49931	0.00179768
-0.999329	0.00179649
-0.499329	0.00179673
0.000656128	0.00179911
0.500656	0.00180174
1.00066	0.00180317
1.50066	0.00180722
2.00066	0.00181056
2.50064	0.00180913
3.00064	0.0018015
3.50063	0.00179649
4.00063	0.0017922
4.50063	0.00178552
5.00063	0.00178672
5.50063	0.00178099
6.00063	0.00177861
6.50061	0.0017767
7.00061	0.0017748
7.5006	0.00177933
8.0006	0.00177241
8.5006	0.00177861
9.0006	0.00178004
9.50059	0.00177885
10.0006	0.00177694
10.5006	0.00178099
11.0006	0.0017748
11.5006	0.00177336
12.0006	0.00177551
12.5006	0.00177074
13.0006	0.00177503
13.5006	0.00177885
14.0006	0.00177527
14.5006	0.00177503
15.0005	0.00177098
15.5005	0.00176621
16.0005	0.00175882
16.5005	0.00175405
17.0005	0.00175167
17.5005	0.00175
18.0005	0.00175072
18.5005	0.00174809
19.0005	0.00174046
19.5005	0.00173236
20.0005	0.00172354
20.5005	0.00172139
21.0005	0.00171638
21.5005	0.00171304
22.0005	0.00171257
22.5005	0.00171161
23.0005	0.00171018
23.5005	0.00170303
24.0005	0.00169898
24.5005	0.0016923
25.0005	0.001683
25.5005	0.00167681
26.0005	0.00167204
26.5005	0.00167323
27.0005	0.00166822
27.5005	0.00167371
28.0005	0.001678
28.5004	0.00168157
29.0004	0.00167919
29.5004	0.00167585
30.0004	0.00167704
30.5004	0.00167251
31.0004	0.00166965
31.5004	0.00166751
32.0004	0.00165988
32.5004	0.00165892
33.0004	0.00164772
33.5004	0.00164319
34.0004	0.00163031
34.5004	0.00161887
35.0004	0.00160886
35.5004	0.00160337
36.0004	0.00159789
36.5004	0.00159145
37.0004	0.00158239
37.5004	0.00157119
38.0004	0.00155736
38.5004	0.00155068
39.0004	0.00154091
39.5004	0.00153352
40.0004	0.0015266
40.5004	0.00152422
41.0003	0.00151492
41.5003	0.00151253
42.0002	0.00150061
42.5001	0.00149275
43.0003	0.00148083
43.5003	0.00147272
44.0003	0.00145937
44.5003	0.00144578
45.0003	0.00143839
45.5003	0.00142432
46.0003	0.00141693
46.5003	0.00139714
47.0003	0.00138307
47.5003	0.0013671
48.0003	0.00135923
48.5003	0.00135685
49.0003	0.0013454
49.5003	0.00134707
50.0003	0.00134254
50.5003	0.00133682
51.0003	0.00132275
51.4988	0.00131274
52.0003	0.00129653
52.5003	0.00128508
53.0003	0.00127054
53.5003	0.001256
54.0002	0.00124646
54.5002	0.00123263
55.0002	0.00121642
55.5002	0.00120903
56.0002	0.00120927
56.5002	0.00118268
56.9991	0.00116945
57.4999	0.00115228
58.0002	0.00114156
58.5002	0.00112725
59.0002	0.00110734
59.5002	0.00109244
60.0002	0.00108135
60.5002	0.00106431
61.0002	0.00104118
61.5002	0.00102866
62.0002	0.00101269
62.5002	0.00099314
63.0002	0.000979669
63.5002	0.000971559
64.0002	0.000958446
64.4987	0.000948314
65.0002	0.000931624
65.5002	0.00091267
66.0002	0.00089455
66.5001	0.000874642
67.0001	0.000855211
67.5001	0.000838164
68.0001	0.000823263
68.5001	0.000804786
69.0001	0.000784878
69.5001	0.000762109
70.0001	0.000745539
70.5001	0.000727002
71.0001	0.000708286
71.5001	0.000686232
72.0001	0.000672583
72.5001	0.000655357
73.0001	0.000634495
73.5001	0.000616018
74.0001	0.000597958
74.5001	0.000578824
75.0001	0.00056744
75.5001	0.000548664
76.0001	0.000527505
76.5001	0.000505093
77.0001	0.000487091
77.5001	0.000464739
78.0001	0.000444056
78.5001	0.000422956
79	0.000402631
79.5	0.000382604
80	0.000365736
80.5	0.000342192
81	0.000325682
81.5	0.00030333
81.9999	0.000278296
82.5	0.000255169
83	0.000232399
83.5	0.000206531
84	0.000168801
84.5	0.000135423
85	0.000104428
85	7.49E-05
-10.4993	0.00188351
-9.99925	0.00188971
-9.49927	0.00188733
-8.99927	0.00188924
-8.49928	0.00189377
-7.99928	0.0018983
-7.49928	0.00190259
-6.99928	0.00190473
-6.49928	0.00190879
-5.99928	0.00190855
-5.4993	0.00191236
-4.9993	0.00191117
-4.49931	0.00190903
-3.99931	0.00190998
-3.49931	0.00190831
-2.99931	0.00190903
-2.49931	0.00190378
-1.99933	0.00190736
-1.49933	0.00190783
-0.999329	0.00189997
-0.499344	0.00190283
0.000656128	0.00190903
0.500656	0.00191451
1.00066	0.00192333
1.50066	0.00193501
2.00064	0.00194193
2.50064	0.00193692
3.00064	0.00193024
3.50064	0.00192238
4.00063	0.0019157
4.50063	0.00191403
5.00063	0.0019157
5.50063	0.00191999
6.00061	0.00191832
6.50061	0.00192047
7.00061	0.00191832
7.50056	0.00190855
8.0006	0.00191141
8.50053	0.00190569
9.0006	0.00190521
9.50058	0.00189949
10.0005	0.00190116
10.5006	0.00189901
11.0001	0.00189305
11.5	0.00189591
12.0006	0.00190163
12.5006	0.00190593
13.0006	0.00190783
13.5005	0.00191165
14.0005	0.00190926
14.5005	0.00190521
15.0005	0.00189734
15.5005	0.00189567
16.0005	0.00188804
16.5005	0.00188351
17.0005	0.00187898
17.5005	0.00187231
18.0005	0.00186253
18.5005	0.00185371
19.0005	0.00184727
19.5005	0.0018406
20.0005	0.00183249
20.5005	0.00182558
21.0005	0.00181199
21.5005	0.00180603
22.0005	0.00179983
22.5005	0.00179125
23.0005	0.00178886
23.5005	0.00178314
24.0005	0.0017767
24.5005	0.00177336
25.0005	0.00177122
25.5005	0.00176335
26.0005	0.00175834
26.5005	0.00174881
27.0005	0.00173951
27.5005	0.00173212
28.0005	0.00173188
28.5004	0.00172616
29.0004	0.00172091
29.5004	0.00171781
30.0004	0.0017047
30.5004	0.00169516
31.0004	0.00168968
31.5004	0.00167371
32.0004	0.00166512
32.5004	0.00165559
33.0004	0.00165273
33.5004	0.001647
34.0004	0.00163222
34.5004	0.00161958
35.0004	0.00160599
35.5004	0.00159074
36.0004	0.00158096
36.5004	0.00157142
37.0004	0.00156332
37.5004	0.00155807
38.0004	0.00154687
38.5004	0.00153924
39.0004	0.00152136
39.5004	0.00152207
40.0004	0.00149883
40.5004	0.00148822
41.0004	0.00147546
41.5003	0.00146986
42.0003	0.00145782
42.5003	0.0014546
43.0003	0.00144935
43.5003	0.00144709
44.0003	0.00143994
44.5003	0.00142682
45.0003	0.00141204
45.5003	0.00139607
46.0003	0.00137842
46.5003	0.00136042
47.0003	0.00135029
47.5003	0.00134075
48.0003	0.00132955
48.4989	0.00131334
49.0003	0.00130332
49.5003	0.00128604
50.0003	0.00126792
50.5003	0.00125278
51.0003	0.00124026
51.5003	0.00123144
52.0003	0.00121201
52.5003	0.00119663
53.0003	0.00117613
53.5003	0.00116099
54.0002	0.00114585
54.5002	0.00112153
55.0002	0.0011108
55.5002	0.00109566
56.0002	0.00108386
56.5002	0.00106717
57.0002	0.0010506
57.5002	0.00103355
58.0002	0.00101591
58.5002	0.00100327
59.0002	0.000988372
59.5002	0.000965122
60.0002	0.000951175
60.5002	0.000934247
61.0002	0.000915769
61.5002	0.0008961
62.0002	0.00087345
62.5002	0.000854973
63.0002	0.000835542
63.5002	0.00082076
64.0002	0.000810627
64.5002	0.000797156
65.0002	0.000790719
65.5002	0.000779275
66.0001	0.000766281
66.5001	0.00074387
67.0001	0.00072575
67.5001	0.000704531
68.0001	0.000680212
68.5001	0.000654463
69.0001	0.000633124
69.5001	0.000616554
70.0001	0.000598792
70.5001	0.000578526
71.0001	0.000565533
71.5001	0.00054634
72.0001	0.000530247
72.5001	0.000511292
73.0001	0.0004921
73.5001	0.000471832
74.0001	0.000455858
74.5001	0.000436904
75.0001	0.000423791
75.5001	0.000411989
76.0001	0.000393512
76.5001	0.000372292
77.0001	0.000355842
77.5	0.000340583
78.0001	0.000324609
78.5001	0.000308754
79	0.000293257
79.5	0.000277283
80	0.00026405
80.5	0.000246407
81	0.000231148
81.5	0.000217319
82	0.000201226
82.5	0.000185014
83	0.000170947
83.5	0.000160099
84	0.000147105
84.4971	0.000130774
85	0.000115157
85	9.70E-05
