Photodiode Viewing Angle (Degrees) - Plot 0	Lock-in Signal Amplitude (V) - Plot 0
-18.9987	0.0028782
-18.4987	0.00277902
-17.9987	0.00270177
-17.4987	0.00262834
-16.9987	0.00255968
-16.4987	0.00247289
-15.9987	0.00241567
-15.4987	0.00236036
-14.9987	0.00230505
-14.4987	0.00226595
-13.9987	0.00222112
-13.4987	0.00218488
-12.9987	0.00215913
-12.4987	0.00213243
-11.9987	0.00210764
-11.4987	0.00208379
-10.9987	0.00206091
-10.4987	0.00204183
-9.99876	0.00202562
-9.49876	0.00199606
-8.99876	0.00197889
-8.49876	0.00197317
-7.99876	0.00196077
-7.49878	0.00195695
-6.99878	0.00194741
-6.49878	0.00193883
-5.99879	0.00192643
-5.49879	0.0019188
-4.99879	0.00191022
-4.49879	0.00190354
-3.99879	0.00190068
-3.49881	0.00189782
-2.99881	0.00189305
-2.49881	0.001894
-1.99883	0.00188828
-1.49883	0.00188447
-0.998825	0.00188447
-0.498825	0.00187588
0.00117493	0.00187112
0.50116	0.0018673
1.00116	0.00186635
1.50116	0.00187112
2.00116	0.00186444
2.50114	0.00186253
3.00114	0.00185872
3.50114	0.00185109
4.00113	0.00185014
4.50113	0.00184632
5.00113	0.00184918
5.50092	0.00184632
6.00113	0.00184918
6.50111	0.00184632
7.00111	0.00184823
7.50111	0.00184632
8.0011	0.00184537
8.5011	0.00185109
9.0011	0.00184823
9.5011	0.00184823
10.0011	0.00184823
10.5011	0.00184918
11.0011	0.00185395
11.5011	0.00185681
12.0011	0.00185872
12.5011	0.00186158
13.0011	0.00186539
13.5011	0.00185777
14.0011	0.00185967
14.5011	0.00185777
15.0011	0.00186635
15.501	0.00186921
16.001	0.00187302
16.501	0.00187207
17.001	0.00187207
17.501	0.00186921
18.0003	0.00187302
18.501	0.00187112
19.001	0.00187302
19.501	0.00187302
20.001	0.00188351
20.501	0.00188447
21.001	0.00189019
21.501	0.00189114
22.001	0.00189591
22.501	0.00189973
23.001	0.00190831
23.501	0.00190831
24.001	0.00191308
24.501	0.0019045
25.001	0.0019045
25.501	0.00189019
26.001	0.00188447
26.501	0.00187684
27.001	0.00187398
27.4994	0.00187588
27.9996	0.00187207
28.5009	0.00187398
29.0009	0.00186349
29.5009	0.00183869
30.0009	0.00182057
30.5009	0.00180817
31.0009	0.00178147
31.5009	0.00176812
32.0009	0.00175477
32.5009	0.00175095
33.0009	0.00173665
33.5009	0.00171853
34.0009	0.00169946
34.5009	0.00168038
35.0009	0.00165654
35.5009	0.00163461
36.0009	0.00161267
36.5009	0.00160027
37.0009	0.0015812
37.5009	0.00156594
38.0009	0.00155164
38.5009	0.00152779
39.0009	0.001503
39.5009	0.00148297
40.0009	0.00145913
40.5001	0.00144387
41.0008	0.00142575
41.5003	0.00140858
42.0008	0.0013876
42.5008	0.00137521
43.0008	0.00135709
43.5008	0.00133992
44.0008	0.00132275
44.5008	0.00129891
45.0008	0.00127984
45.5008	0.00126267
46.0008	0.00124741
46.5008	0.00122739
47.0008	0.00121403
47.5008	0.00119592
48.0008	0.00118161
48.5008	0.00116254
49.0008	0.00115205
49.5008	0.00113107
50.0008	0.00111771
50.5008	0.00110245
51.0008	0.0010872
51.5008	0.00106717
52.0008	0.00105286
52.5008	0.00103188
53.0008	0.00101186
53.5007	0.00100041
54.0007	0.000989921
54.5007	0.00097657
55.0007	0.000956539
55.5007	0.000945095
56.0007	0.000932697
56.5007	0.000914577
57.0007	0.000896458
57.5007	0.000881199
58.0007	0.000869755
58.5007	0.000854496
59.0007	0.000839237
59.5007	0.000823025
60.0007	0.00080872
60.5007	0.000797275
61.0007	0.000780109
61.5007	0.000761036
62.0007	0.000741009
62.5007	0.000727657
63.0007	0.000710491
63.5007	0.000690464
64.0003	0.000675205
64.4998	0.000661854
65.0007	0.000646595
65.5007	0.000630382
66.0006	0.000610355
66.5006	0.000597004
67.0006	0.000579838
67.5006	0.00056744
68.0006	0.000553135
68.5006	0.000537876
69.0006	0.000525478
69.5006	0.000510219
70.0006	0.000494007
70.5006	0.000473978
71.0006	0.000464441
71.5006	0.000446321
72.0006	0.000427248
72.5006	0.000412943
73.0006	0.000398638
73.5006	0.000381472
74.0006	0.000366213
74.5006	0.000353815
75.0006	0.000338556
75.5006	0.000320436
76.0006	0.000309946
76.5006	0.000296595
77.0006	0.000284197
77.5006	0.000265123
78.0006	0.000251772
78.5006	0.000244142
79.0005	0.000226022
79.5005	0.000211717
80.0005	0.000199319
80.5005	0.000182153
81.0005	0.000169755
81.5005	0.000158311
82.0005	0.000145913
82.5005	0.000132562
83.0005	0.000120163
83.5005	0.00010109
84.0002	8.20E-05
84.5001	6.39E-05
85.0002	5.53E-05
85.5005	5.25E-05
86.0005	5.72E-05
86.5005	5.72E-05
87.0005	6.29E-05
87.5005	6.20E-05
88.0005	6.20E-05
88.5005	5.72E-05
89.0005	5.91E-05
89.5005	6.01E-05
90.0005	5.63E-05
90.5005	5.53E-05
91.0005	5.72E-05
91.5005	5.53E-05
92.0005	5.34E-05
92.5005	5.15E-05
92.9998	5.15E-05
93.4996	4.96E-05
94	4.86E-05
94.5003	5.05E-05
95.0004	4.39E-05
95.5004	4.48E-05
96.0004	4.48E-05
96.5004	4.39E-05
97.0004	4.39E-05
97.5004	4.20E-05
98.0004	4.10E-05
98.5003	3.91E-05
99.0004	4.20E-05
99.5004	4.01E-05
100	3.72E-05
100.5	3.81E-05
101	3.91E-05
101.5	3.43E-05
102	3.72E-05
102.5	3.62E-05
103	3.72E-05
103.5	3.91E-05
104	4.10E-05
104.5	4.39E-05
105	4.39E-05
105.5	5.05E-05
106	5.53E-05
106.5	5.44E-05
107	5.72E-05
107.5	6.29E-05
108	6.96E-05
108.5	7.53E-05
109	7.72E-05
109.5	8.39E-05
110	9.44E-05
110.5	9.92E-05
111	0.000107766
111.5	0.000112534
112	0.000117302
112.5	0.000127793
113	0.000134469
113.5	0.000139237
114	0.000145913
114.5	0.00015545
115	0.000164033
115.5	0.000172616
116	0.000175477
116.499	0.000181199
117	0.000185967
117.5	0.000196458
118	0.000201226
118.5	0.000207902
119	0.000218392
119.5	0.000225068
120	0.0002203
120.5	0.000207902
121	0.00018406
121.5	0.000161172
122	0.000132562
122.5	0.00010109
123	8.20E-05
123.5	7.34E-05
124	7.15E-05
124.5	7.15E-05
125	7.25E-05
125.5	7.82E-05
126	8.11E-05
126.5	8.01E-05
127	8.58E-05
127.5	8.96E-05
128	9.06E-05
128.5	9.35E-05
129	9.92E-05
129.5	0.000103951
130	0.00011158
130.5	0.000114441
131	0.000116349
131.5	0.000115395
132	0.000121117
132.5	0.000115395
133	0.000115395
133.5	0.000116349
134	0.00011921
134.5	0.000117302
135	0.000117302
135.5	0.000133515
136	0.00013733
136.5	0.000136376
137	0.000130654
137.5	0.000123025
138	0.000112534
138.5	9.82E-05
139	8.30E-05
139.5	8.11E-05
140	8.11E-05
140.5	8.39E-05
141	8.11E-05
141.5	8.30E-05
142	8.39E-05
142.5	8.11E-05
143	8.01E-05
143.5	8.39E-05
144	8.39E-05
144.5	8.58E-05
145	8.58E-05
145.5	8.49E-05
146	8.39E-05
146.5	8.11E-05
147	7.92E-05
147.5	8.11E-05
148	7.82E-05
148.5	7.72E-05
149	8.11E-05
149.5	8.30E-05
150	8.30E-05
150	8.30E-05
-33.9987	0.00265028
-33.4987	0.00254728
-32.9987	0.00247575
-32.4987	0.00240709
-31.9987	0.00233938
-31.4987	0.00226118
-30.9987	0.00220396
-30.4987	0.0021496
-29.9987	0.00210668
-29.4987	0.00206281
-28.9987	0.0020199
-28.4987	0.00198843
-27.9987	0.00197031
-27.4987	0.00193978
-26.9987	0.00192261
-26.4987	0.00189687
-25.9987	0.00188161
-25.4987	0.00186635
-24.9988	0.00184441
-24.4988	0.00182725
-23.9988	0.00181103
-23.4994	0.00180627
-22.9988	0.00179482
-22.4988	0.00179673
-21.9988	0.0017891
-21.4988	0.00178815
-20.9988	0.0017748
-20.4988	0.00177384
-19.9988	0.0017624
-19.4988	0.00176049
-18.9988	0.00175668
-18.4988	0.00175572
-17.9988	0.00175572
-17.4988	0.00175763
-16.9988	0.00175858
-16.4988	0.00175572
-16.0004	0.00175286
-15.4988	0.00174714
-14.9988	0.00174428
-14.4988	0.00174619
-13.9988	0.00174619
-13.4988	0.00174523
-12.9988	0.00174428
-12.4993	0.00174428
-11.9989	0.0017376
-11.4989	0.00173569
-10.9989	0.00173569
-10.4989	0.00173856
-9.99887	0.00173474
-9.49887	0.00173569
-8.99887	0.00174142
-8.49889	0.00174046
-7.99889	0.00173569
-7.49895	0.00173856
-6.9989	0.00174046
-6.4989	0.00174046
-5.9989	0.00174142
-5.4989	0.00173474
-4.9989	0.00173569
-4.49892	0.00173379
-3.99892	0.00173093
-3.49893	0.00172711
-2.99893	0.00172902
-2.49893	0.00172902
-1.99893	0.00172902
-1.49893	0.00172425
-0.998932	0.00172425
-0.498947	0.0017252
0.00105286	0.00172616
0.501038	0.00172902
1.00104	0.0017252
1.50104	0.00172139
2.00104	0.00171948
2.50104	0.00171567
3.00104	0.00171757
3.50102	0.00171471
4.00102	0.00171185
4.50101	0.00171185
5.00101	0.00171281
5.50101	0.00171376
6.00101	0.00170899
6.50101	0.00170708
7.001	0.0017109
7.501	0.00171853
8.00098	0.00171567
8.50021	0.00171853
8.99994	0.00171567
9.50098	0.00171376
10.001	0.00170708
10.501	0.00170518
11.001	0.00169564
11.501	0.00169659
12.001	0.00170041
12.5009	0.00169564
13.0009	0.00170041
13.5009	0.00170518
14.0009	0.00170041
14.5009	0.00169659
15.0009	0.00169183
15.5009	0.00168801
16.0009	0.00168134
16.5009	0.00168038
17.0009	0.00168229
17.5009	0.00168896
18.0009	0.00168515
18.5009	0.0016842
19.0009	0.00167943
19.5009	0.00167752
20.0009	0.0016718
20.5009	0.00166512
21.0009	0.00166226
21.5009	0.00166322
22.0009	0.00166131
22.5009	0.00165368
23.0009	0.00165463
23.5009	0.00165177
24.0003	0.0016451
24.5009	0.00164605
25.0009	0.00164128
25.5008	0.00164319
26.0008	0.00164319
26.5008	0.00163842
27.0008	0.00164414
27.5008	0.0016451
28.0008	0.00164796
28.5008	0.00163937
29.0008	0.00162698
29.5008	0.00162316
30.0008	0.0016203
30.5008	0.00161362
31.0008	0.00160504
31.5008	0.00159837
32.0008	0.00159741
32.5008	0.00159455
33.0008	0.00158692
33.5008	0.00158311
34.0008	0.00157643
34.5008	0.00157452
35.0008	0.0015688
35.5008	0.00156308
36.0008	0.00155354
36.5008	0.00153924
37.0003	0.0015297
37.5008	0.00152303
38.0008	0.00150967
38.5007	0.00150586
39.0007	0.00149823
39.5007	0.00149823
40.0007	0.00148583
40.5007	0.00147534
41.0007	0.0014639
41.5007	0.00144864
42.0007	0.00143719
42.5007	0.00142575
43.0007	0.00141717
43.5006	0.00140858
44.0007	0.00139046
44.5007	0.00137902
45.0007	0.00136376
45.5007	0.0013485
46.0007	0.00132371
46.5007	0.00129987
47.0007	0.00127602
47.5007	0.0012579
48.0007	0.00123788
48.5007	0.00122166
49.0007	0.00120641
49.5007	0.00118638
50.0007	0.00116635
50.5007	0.00114632
51.0006	0.00112916
51.5006	0.00110913
52.0006	0.00109673
52.5006	0.00107766
53.0006	0.0010624
53.5006	0.00104237
54.0006	0.00102521
54.5006	0.00101567
55.0006	0.000999458
55.5006	0.000985153
56.0006	0.000969891
56.5006	0.000945095
57.0006	0.000926975
57.5006	0.000907902
58.0006	0.000893597
58.5006	0.00087643
59.0006	0.000859264
59.5006	0.000848774
60.0006	0.000834469
60.5006	0.000821117
61.0006	0.000806812
61.5006	0.000788692
62.0006	0.00077248
62.5006	0.000761036
63.0006	0.000748638
63.5006	0.000733379
64.0005	0.000717167
64.5005	0.000699047
65.0005	0.000681881
65.5005	0.000666622
66.0005	0.000648502
66.5005	0.000634197
67.0005	0.00062466
67.5005	0.000610355
68.0005	0.000597958
68.5005	0.000583652
69.0005	0.000565533
69.5005	0.000551227
70.0005	0.000537876
70.5005	0.000525478
71.0005	0.000513081
71.5005	0.000499729
72.0005	0.000490192
72.5005	0.000475885
73.0005	0.000454905
73.5005	0.000446321
74.0005	0.000432016
74.5004	0.000415804
75.0005	0.000401499
75.5005	0.000385286
76.0005	0.000370027
76.5005	0.000359537
77.0005	0.000342371
77.5005	0.000330927
78.0004	0.000313761
78.5004	0.00030327
79.0004	0.000289919
79.5004	0.000271799
80.0004	0.000259401
80.5004	0.000251772
81.0004	0.000235558
81.5004	0.000222207
82.0003	0.000209809
82.5004	0.000196458
83.0004	0.000182153
83.5004	0.000170709
84.0004	0.000143052
84.5004	0.000121117
85.0004	9.73E-05
85.5004	7.44E-05
86.0004	5.72E-05
86.5004	4.29E-05
87.0004	3.72E-05
87.5004	3.81E-05
88.0004	3.72E-05
88.5004	4.01E-05
89.0004	3.91E-05
89.5003	4.39E-05
90.0004	4.48E-05
90.5003	4.86E-05
91.0003	4.48E-05
91.5003	5.15E-05
92.0003	5.34E-05
92.5003	5.53E-05
93.0003	6.20E-05
93.5003	6.58E-05
94.0003	6.87E-05
94.5003	6.77E-05
95.0003	7.34E-05
95.5003	7.92E-05
96.0003	8.30E-05
96.5003	8.39E-05
97.0003	8.77E-05
97.5003	9.73E-05
98.0002	0.00010109
98.4985	0.000104905
99.0003	0.000114441
99.5003	0.000112534
100	0.000123979
100.5	0.000127793
101	0.000130654
101.5	0.000135423
102	0.000141145
102.5	0.000148774
103	0.00015545
103.5	0.000160218
104	0.000171662
104.5	0.000181199
105	0.000181199
105.5	0.00019455
106	0.000206948
106.5	0.000217439
107	0.000225068
107.5	0.000231744
108	0.000245096
108.5	0.000255587
109	0.000267984
109.5	0.000288012
110	0.000318529
110.5	0.000331881
111	0.000349047
111.5	0.000353815
112	0.000329973
112.5	0.000298502
113	0.00024605
113.5	0.000192643
114	0.000154496
114.5	0.000108719
115	8.01E-05
115.5	7.82E-05
116	7.53E-05
116.5	7.72E-05
117	8.11E-05
117.5	8.11E-05
118	8.11E-05
118.5	7.72E-05
119	7.44E-05
119.5	7.82E-05
120	7.92E-05
120.5	9.44E-05
121	0.000110627
121.5	0.000132562
122	0.000151635
122.5	0.000169755
123	0.000185967
123.5	0.000190736
124	0.000176431
124.5	0.000158311
125	0.000133515
125.5	0.000106812
126	8.39E-05
126.499	6.77E-05
127	5.63E-05
127.5	5.91E-05
128	5.34E-05
128.5	6.01E-05
129	6.01E-05
129.5	6.20E-05
130	5.82E-05
130.5	5.91E-05
131	6.10E-05
131.5	5.82E-05
132	5.91E-05
132.5	5.72E-05
133	6.01E-05
133.5	5.72E-05
134	5.91E-05
134.499	5.91E-05
134.999	5.72E-05
135	6.01E-05
-48.9987	0.00230886
-48.4987	0.00220968
-47.9987	0.00213529
-47.4987	0.00207044
-46.9987	0.00200368
-46.4987	0.0019312
-45.9987	0.00187875
-45.4987	0.00182534
-44.9987	0.00178052
-44.4987	0.00174428
-43.9987	0.00170232
-43.4987	0.00167752
-42.9995	0.00165845
-42.4987	0.00163365
-41.9987	0.00161553
-41.4987	0.00159837
-40.9987	0.0015812
-40.4987	0.00156594
-39.9988	0.0015545
-39.4988	0.00153542
-38.9988	0.00152779
-38.499	0.00152303
-37.9988	0.00151635
-37.4988	0.00151921
-36.9988	0.00151349
-36.4988	0.00151063
-35.9988	0.00150967
-35.4988	0.00150491
-34.9988	0.00150014
-34.4988	0.00150109
-33.9988	0.00150109
-33.4988	0.00150395
-32.9988	0.00150777
-32.4988	0.00151063
-31.9988	0.00151253
-31.4988	0.00151635
-30.9988	0.00150681
-30.4988	0.00151253
-29.9988	0.00151349
-29.4988	0.00151921
-28.9988	0.00152589
-28.4988	0.00152303
-27.9988	0.00152779
-27.4989	0.00152779
-26.9989	0.0015297
-26.4989	0.00153256
-25.9989	0.00153542
-25.4989	0.00154019
-24.9989	0.00154782
-24.4989	0.00154782
-23.9989	0.0015545
-23.4989	0.0015564
-22.9989	0.00155831
-22.4989	0.0015688
-21.9989	0.00156976
-21.4989	0.00157071
-20.9989	0.00157262
-20.4989	0.00157452
-19.9989	0.00157929
-19.4989	0.0015812
-18.9989	0.00158501
-18.4989	0.00158692
-17.9989	0.00158978
-17.4989	0.00159169
-16.9989	0.00159455
-16.4989	0.00159837
-15.9989	0.00159932
-15.4989	0.00160504
-14.9989	0.00161267
-14.499	0.00161458
-13.999	0.00160981
-13.499	0.00160981
-12.999	0.00161649
-12.499	0.00161362
-11.999	0.00161362
-11.499	0.00161553
-10.999	0.00161839
-10.499	0.00162316
-9.99899	0.00162507
-9.49899	0.00162888
-8.99899	0.00163079
-8.49899	0.00163651
-7.999	0.00164223
-7.499	0.001647
-6.99902	0.00165082
-6.49902	0.00165654
-5.99902	0.00165177
-5.49902	0.00165559
-4.99902	0.00165082
-4.49903	0.00164986
-3.99903	0.00165177
-3.49904	0.00165177
-2.99904	0.0016594
-2.49905	0.00166512
-1.99905	0.0016718
-1.49905	0.0016718
-0.999062	0.00167084
-0.499062	0.0016718
0.000938416	0.00167084
0.500931	0.00166703
1.00093	0.00166989
1.50092	0.00167371
2.00092	0.00168038
2.50092	0.00168134
3.00091	0.00167943
3.50091	0.00167561
4.00091	0.00167561
4.5009	0.00167371
5.0009	0.00167466
5.50089	0.00167371
6.00077	0.00167847
6.50088	0.00167847
7.00088	0.00168038
7.50088	0.00167847
8.00087	0.0016718
8.50087	0.00167275
9.00087	0.0016718
9.50086	0.00166989
10.0009	0.0016718
10.5008	0.00166703
11.0008	0.00166989
11.5008	0.00167561
12.0008	0.00166798
12.5008	0.00167371
13.0008	0.00166989
13.5008	0.00166512
14.0008	0.00166035
14.5008	0.00165463
15.0008	0.00165273
15.5008	0.00165177
16.0008	0.00164605
16.5008	0.00164796
17.0008	0.00164319
17.5008	0.00163937
18.0008	0.0016327
18.5008	0.00163174
19.0008	0.00162316
19.5008	0.0016203
20.0008	0.00161649
20.5008	0.00161267
21.0008	0.00160123
21.5008	0.0015936
22.0008	0.00158311
22.5008	0.00158406
23.0008	0.00157929
23.5007	0.00157452
24.0007	0.00156976
24.5007	0.00156785
25.0007	0.00156689
25.5007	0.00156403
26.0007	0.0015564
26.5007	0.00155164
27.0007	0.00154973
27.5007	0.00153733
28.0007	0.00153638
28.5007	0.00152779
29.0007	0.00152493
29.5007	0.00152016
30.0007	0.00150967
30.5007	0.00150109
31.0007	0.00149155
31.5007	0.00148106
32.0007	0.00147248
32.5007	0.00145913
33.0007	0.00145627
33.5005	0.00144578
34	0.0014391
34.5007	0.0014267
35.0007	0.00142098
35.5007	0.0014124
36.0006	0.00140382
36.5006	0.00139428
37.0006	0.00139237
37.5006	0.00138284
38.0006	0.00137616
38.5006	0.00136662
39.0006	0.00135995
39.5006	0.00135041
40.0003	0.00134469
40.5006	0.00133134
41.0006	0.00131894
41.5006	0.00131131
42.0006	0.001297
42.5006	0.00129033
43.0006	0.00127698
43.5006	0.00126744
44.0006	0.00126076
44.5006	0.00125218
45.0006	0.00124169
45.5006	0.00123215
46.0006	0.00122643
46.5006	0.00121499
47.0006	0.0012045
47.5006	0.00119592
48.0006	0.00118256
48.5006	0.00116921
49.0005	0.001153
49.5005	0.00113965
50.0005	0.00113107
50.5005	0.0011139
51.0005	0.00110722
51.5005	0.00109864
52.0005	0.00109101
52.5005	0.00108052
53.0005	0.00107289
53.5005	0.00105859
54.0005	0.0010481
54.5005	0.00104428
55.0005	0.00103761
55.5005	0.00103188
56.0005	0.00102711
56.5005	0.00102521
57.0005	0.00102044
57.5005	0.00101758
58.0005	0.00101567
58.5005	0.00101376
59.0005	0.00100995
59.5005	0.00100899
60.0005	0.00100327
60.5005	0.000997551
61.0005	0.000996597
61.5005	0.000996597
62.0004	0.000989921
62.5	0.000992782
62.9996	0.00100041
63.4995	0.000998504
64.0003	0.000995643
64.5003	0.000998504
65.0004	0.00100327
65.5004	0.000996597
66.0004	0.000993736
66.5004	0.00098706
67.0004	0.000980385
67.5004	0.000975613
68.0004	0.000972752
68.5004	0.000967029
69.0004	0.000963215
69.5004	0.000963215
70.0004	0.000958446
70.5004	0.000947002
71.0004	0.000936512
71.5004	0.000929836
72.0004	0.000916485
72.5004	0.000910763
73.0004	0.000903133
73.5004	0.000896458
74.0004	0.000888828
74.5004	0.000874523
75.0002	0.00086594
75.5003	0.00085545
76.0003	0.000831608
76.5003	0.00081921
77.0003	0.000810627
77.5003	0.00080109
78.0003	0.000796322
78.5003	0.000784878
79.0003	0.000781063
79.5003	0.000766758
80.0003	0.000752453
80.5003	0.000741009
81.0003	0.000727657
81.5003	0.000702862
82.0003	0.000681881
82.5003	0.000666622
83.0003	0.000648502
83.5003	0.000635151
84.0003	0.000606541
84.5003	0.000550274
85.0003	0.000478746
85.5003	0.000399591
86.0003	0.000322344
86.5003	0.000254633
87.0003	0.000195504
87.5003	0.00016594
88.0002	0.00016594
88.5002	0.00016594
89.0002	0.000175477
89.5002	0.000181199
90.0002	0.000189782
90.5002	0.000198365
91.0002	0.000205995
91.5002	0.000213624
92.0002	0.000224114
92.5002	0.000234605
93.0002	0.000243188
93.5002	0.000255587
94.0002	0.000263216
94.5002	0.000281336
95.0002	0.000305178
95.5002	0.000320436
96.0002	0.000335695
96.5002	0.00035763
97.0001	0.000383379
97.5002	0.000399591
98.0002	0.000403406
98.5002	0.00042248
99.0002	0.000452997
99.5002	0.000486376
100	0.000513081
100.5	0.000545505
101	0.00058556
101.5	0.000617985
102	0.000647549
102.5	0.000690464
103	0.000711445
103.5	0.000722889
104	0.000664715
104.5	0.000569347
105	0.00046921
105.5	0.000377657
106	0.000289919
106.5	0.000192643
107	0.000133515
107.5	0.000128747
108	0.000140191
108.5	0.000146867
109	0.000143052
109.5	0.000135423
110	0.000133515
110.5	0.000133515
111	0.000136376
111.5	0.000143052
112	0.000151635
112.5	0.000142098
113	0.000125886
113.5	0.00010109
114	7.92E-05
114.5	5.53E-05
115	4.20E-05
115.5	4.10E-05
116	4.39E-05
116.5	4.39E-05
117	4.58E-05
117.5	4.39E-05
118	4.39E-05
118.5	4.48E-05
119	4.39E-05
119.5	4.48E-05
120	4.86E-05
120	4.58E-05
-63.9987	0.00189687
-63.4987	0.0018015
-62.9987	0.0017233
-62.4991	0.00166035
-61.9987	0.0015955
-61.4987	0.00152207
-60.9987	0.00146485
-60.4987	0.00141335
-59.9987	0.00136662
-59.4987	0.00133038
-58.9987	0.00129414
-58.4987	0.00127126
-57.9987	0.00124741
-57.4987	0.00122834
-56.9987	0.00120641
-56.4987	0.00118924
-55.9987	0.00117398
-55.4987	0.00115968
-54.9991	0.00115109
-54.4988	0.00113297
-53.9988	0.00113202
-53.4988	0.00112344
-52.9988	0.00112057
-52.4988	0.00112153
-51.9988	0.00111485
-51.4988	0.0011139
-50.9988	0.00111104
-50.4988	0.00111199
-49.9988	0.00111008
-49.4988	0.0011139
-48.9988	0.00111485
-48.4988	0.00111771
-47.9988	0.00112439
-47.4988	0.0011282
-46.9988	0.00112725
-46.4988	0.00112725
-45.9988	0.00113011
-45.4988	0.00113488
-44.9988	0.00114251
-44.4988	0.00114442
-43.9988	0.00114919
-43.4988	0.001153
-42.9988	0.00115968
-42.4989	0.00116444
-41.999	0.0011654
-41.4989	0.00117589
-40.9989	0.0011797
-40.4989	0.00118542
-39.9989	0.00119019
-39.4989	0.00119401
-38.9989	0.00120068
-38.4989	0.00120641
-37.9989	0.00121403
-37.4989	0.00121785
-36.9989	0.00122643
-36.4989	0.00122834
-35.9989	0.00123406
-35.4989	0.00123597
-34.9989	0.00124741
-34.4989	0.00125123
-33.9989	0.00125504
-33.4989	0.00126458
-32.9989	0.00126935
-32.4989	0.00127698
-31.9989	0.00128079
-31.4989	0.00128651
-30.9989	0.00129319
-30.4989	0.0012951
-29.9989	0.00130368
-29.499	0.00130845
-28.999	0.00131036
-28.499	0.00131512
-27.999	0.00131894
-27.499	0.00132371
-26.999	0.00133324
-26.499	0.00133515
-26.0001	0.00134087
-25.499	0.00134564
-24.999	0.00135327
-24.499	0.00135804
-23.999	0.00136185
-23.499	0.00137234
-22.999	0.00137902
-22.499	0.00138284
-21.999	0.00139333
-21.499	0.00139237
-20.999	0.00139905
-20.499	0.00140096
-19.999	0.00140382
-19.499	0.0014124
-18.999	0.00141907
-18.499	0.00142289
-17.999	0.00143147
-17.4991	0.00143243
-16.9991	0.00143529
-16.4991	0.00143719
-15.9991	0.00144292
-15.4991	0.00144769
-14.9991	0.00145055
-14.4991	0.00145341
-13.9991	0.00146199
-13.4991	0.0014639
-12.9991	0.0014658
-12.4991	0.00146962
-11.9991	0.00147439
-11.4991	0.0014782
-10.9991	0.00148202
-10.4991	0.00148774
-9.9991	0.00148583
-9.49911	0.00149251
-8.99911	0.00149918
-8.49912	0.00149918
-7.99912	0.00150109
-7.49912	0.00149823
-6.99913	0.001503
-6.49956	0.00151063
-5.99913	0.00151349
-5.49914	0.00151635
-4.99915	0.00152112
-4.49915	0.00152589
-3.99915	0.00152589
-3.49915	0.00152875
-2.99916	0.00153161
-2.49919	0.0015297
-1.99916	0.00153256
-1.49917	0.00153256
-0.999229	0.00153352
-0.499184	0.00153352
0.000816345	0.00153542
0.500809	0.00153638
1.00081	0.00153447
1.50081	0.00153352
2.0008	0.00153542
2.5008	0.00153733
3.00079	0.00153256
3.50079	0.00153924
4.00079	0.00153447
4.50078	0.00153638
5.00078	0.00153256
5.50078	0.00153065
6.00077	0.00152684
6.50077	0.00152779
7.00077	0.00152493
7.50076	0.00152303
8.00076	0.00152589
8.50075	0.00152398
9.00075	0.00152493
9.50075	0.00152112
10.0007	0.00152112
10.5007	0.00151635
11.0007	0.00152207
11.5007	0.00151635
12.0007	0.0015154
12.5007	0.00151253
13.0007	0.00151158
13.5007	0.00151063
14.0007	0.00150395
14.5007	0.00149728
15.0007	0.00150014
15.5007	0.0014906
16.0007	0.00148392
16.5007	0.00148297
17.0007	0.00147725
17.5007	0.00147343
18.0007	0.00146676
18.5007	0.00146104
19.0007	0.00146008
19.5007	0.00145722
20.0007	0.00145245
20.5007	0.00145341
21.0006	0.00144769
21.5006	0.00144196
22.0006	0.00143719
22.5006	0.00143243
23.0006	0.00143147
23.5006	0.00142766
24.0006	0.00142575
24.5006	0.00141431
25.0006	0.00140572
25.5006	0.00140572
26.0006	0.00140096
26.5006	0.00139523
27.0006	0.00138951
27.5006	0.0013857
28.0006	0.0013857
28.5006	0.00137807
29.0006	0.00137139
29.5006	0.00137044
30.0006	0.00136472
30.5006	0.0013609
31.0006	0.00135232
31.5006	0.00135041
32.0006	0.00134183
32.5006	0.00133134
33.0006	0.00132561
33.5006	0.00132371
34.0005	0.00131226
34.5005	0.00130845
35.0005	0.00130177
35.5005	0.00129987
36.0005	0.00129128
36.5005	0.0012827
37.0005	0.00127793
37.5005	0.00126935
38.0005	0.00126458
38.5005	0.00125981
39.0005	0.00124741
39.5005	0.00124837
40.0005	0.00124074
40.5005	0.00123788
41.0005	0.00123406
41.5005	0.00123025
42.0005	0.00122166
42.5005	0.00121785
43.0005	0.00121117
43.5005	0.00120641
44.0005	0.00119782
44.5005	0.00118924
45.0005	0.00117875
45.5005	0.00117303
46.0005	0.00117112
46.5005	0.0011673
47.0005	0.00116158
47.5005	0.00116158
48.0004	0.00115968
48.5004	0.00115586
49.0004	0.00115014
49.5004	0.00115109
50.0004	0.00114919
50.5004	0.00114823
51.0004	0.00114919
51.5004	0.00114919
52.0004	0.00115586
52.5004	0.00115968
53.0004	0.00116635
53.5004	0.00117875
54.0004	0.00118924
54.5004	0.00120259
55.0004	0.00121499
55.5004	0.00122929
56.0004	0.00125314
56.5004	0.00127984
57.0004	0.0013094
57.5004	0.0013485
58.0004	0.00138379
58.5004	0.00143243
59.0004	0.00148297
59.5004	0.00154496
60.0004	0.00160695
60.5003	0.00168229
61.0003	0.00176144
61.5003	0.00184918
62.0003	0.00193883
62.5003	0.00205518
63.0003	0.00216962
63.5003	0.00229837
64.0003	0.00242998
64.5003	0.00257303
65.0003	0.00273038
65.5003	0.00290109
66.0003	0.00308134
66.5003	0.00328352
67.0003	0.00351621
67.5003	0.00375749
68.0003	0.00401405
68.5003	0.00425819
69.0003	0.00452998
69.5003	0.00479224
70.0003	0.00508216
70.5	0.00536826
70.9999	0.00566295
71.5003	0.00594142
72.0003	0.00627807
72.5003	0.0066109
73.0002	0.00690272
73.5002	0.00716212
74.0002	0.00749972
74.5002	0.00782019
75.0002	0.0081206
75.5002	0.0083943
76.0002	0.00864989
76.5002	0.00888067
77.0002	0.00910288
77.5	0.00920397
77.9999	0.00929362
78.5002	0.0093661
79.0002	0.00946337
79.5002	0.00946051
80.0002	0.00934321
80.5002	0.00922114
81.0002	0.0090552
81.5002	0.00894362
82.0002	0.00872809
82.5002	0.00830466
83.0002	0.00758937
83.5002	0.00648406
84.0002	0.00534347
84.5002	0.00417331
85.0002	0.00293638
85.5002	0.00185014
86.0001	0.00111295
86.5001	0.000774387
87.0001	0.000716213
87.5001	0.000733379
88.0001	0.000750545
88.5001	0.000779156
89.0001	0.000805859
89.5001	0.000849728
90.0001	0.000879291
90.5001	0.000926975
91.0001	0.000991829
91.5001	0.00106335
92.0001	0.00112916
92.5001	0.00121499
93.0001	0.0012703
93.5001	0.00133038
94.0001	0.00139523
94.5001	0.0014763
95.0001	0.00153542
95.5001	0.00145436
96.0001	0.001297
96.5001	0.00111771
97.0001	0.00094128
97.4993	0.000748638
97.9992	0.000537876
98.5001	0.000393869
99	0.000382425
99.5	0.000473024
100	0.000557903
100.5	0.000541691
101	0.000482561
101.5	0.000405313
102	0.000289919
102.5	0.000161172
103	4.86E-05
103.5	4.96E-05
104	5.63E-05
104.5	5.82E-05
105	6.10E-05
105	5.72E-05
