Photodiode Viewing Angle (Degrees) - Plot 0	Lock-in Signal Amplitude (V) - Plot 0
-18.9987	0.00300981
-18.4987	0.00289442
-17.9987	0.00279142
-17.4987	0.00269891
-16.9987	0.00263025
-16.4987	0.00256445
-15.9987	0.00251104
-15.4987	0.00245382
-14.9987	0.00240709
-14.4987	0.00235559
-14.0006	0.00232507
-13.4987	0.00228693
-12.9987	0.00224115
-12.4987	0.00221063
-11.9987	0.00218107
-11.4987	0.0021496
-10.9987	0.00212862
-10.4987	0.00209524
-9.99876	0.00207616
-9.49876	0.00204565
-8.99876	0.00202657
-8.49876	0.00201227
-7.99876	0.00199701
-7.49878	0.00198843
-6.99878	0.00198366
-6.49878	0.00197984
-5.99879	0.00196363
-5.49879	0.00195695
-4.99879	0.0019436
-4.49879	0.00193501
-3.99879	0.00192452
-3.49881	0.00191785
-2.99881	0.00191785
-2.49881	0.00191117
-1.99883	0.00190831
-1.49883	0.00189782
-0.998825	0.00189496
-0.498825	0.0018921
0.00117493	0.00188828
0.50116	0.0018797
1.00116	0.00188161
1.50108	0.00188161
2.00116	0.00188351
2.50114	0.00188065
3.00114	0.0018797
3.50114	0.00187588
4.00113	0.00186635
4.50113	0.00187016
5.00113	0.00187016
5.50113	0.00186921
6.00113	0.00187493
6.50111	0.0018673
7.00111	0.00187302
7.50111	0.00187302
8.0011	0.00187302
8.5011	0.00186921
9.0011	0.0018797
9.5011	0.00188447
10.0011	0.00188256
10.5011	0.00188447
11.0011	0.00188733
11.5011	0.00189782
12.0011	0.00190163
12.5011	0.00190259
13.0011	0.00191117
13.5011	0.0019188
14.0011	0.00192166
14.5011	0.00192548
15.0011	0.00192643
15.501	0.00193501
16.001	0.00194169
16.501	0.00194741
17.001	0.00195027
17.501	0.00194836
18.001	0.001956
18.501	0.00195027
19.001	0.00196554
19.501	0.00197317
20.001	0.00198747
20.501	0.00199701
21.001	0.00200655
21.501	0.00201513
22.001	0.00202657
22.501	0.00203039
23.001	0.00203706
23.501	0.00204851
24.001	0.00205041
24.501	0.00204565
25.001	0.00204565
25.501	0.00204183
26.001	0.00203229
26.5009	0.00202467
27.001	0.0020218
27.5009	0.00202371
28.0009	0.00202276
28.5009	0.00203134
29.0009	0.00203134
29.5009	0.00202562
30.0009	0.00200368
30.5009	0.00198556
31.0009	0.00197317
31.5009	0.00195695
32.0009	0.00193883
32.5009	0.00192834
33.0009	0.00192357
33.5009	0.00191117
34.0009	0.00188924
34.5009	0.00186444
35.0009	0.00183965
35.5009	0.00181294
36.0009	0.00179005
36.5009	0.0017643
37.0009	0.00175095
37.5009	0.00173188
38.0009	0.00171281
38.5001	0.00168896
39.0009	0.00166703
39.5009	0.00164128
40.0009	0.00161553
40.5008	0.00158883
41.0008	0.00155831
41.5008	0.00153256
42.0008	0.00150967
42.5008	0.00148869
43.0008	0.0014658
43.5008	0.00144387
44.0008	0.00142575
44.5008	0.00140382
45.0008	0.00137425
45.5008	0.00135041
46.0006	0.00133134
46.5008	0.00130845
47.0008	0.00129224
47.5008	0.00127888
48.0008	0.00126076
48.5008	0.00124265
49.0008	0.00122453
49.5008	0.00120641
50.0008	0.00118352
50.5008	0.00116063
51.0008	0.00114442
51.5008	0.00112439
52.0008	0.00110532
52.5008	0.0010872
53.0008	0.00106526
53.5007	0.00104905
54.0007	0.00103284
54.5007	0.00102044
55.0007	0.00100518
55.5007	0.000991829
56.0007	0.000977524
56.5007	0.0009594
57.0007	0.000939373
57.5007	0.000925068
58.0007	0.000909809
58.5007	0.000893597
59.0007	0.000881199
59.5007	0.000864033
60.0007	0.000852589
60.5007	0.000830654
61.0007	0.000817303
61.5007	0.000799183
62.0007	0.000779156
62.5007	0.000757221
63.0007	0.000737194
63.5007	0.000723843
64.0007	0.000708584
64.5007	0.00068951
65.0007	0.000675205
65.5007	0.000654224
66.0006	0.000637058
66.5006	0.000619892
67.0006	0.000605587
67.5006	0.000588421
68.0006	0.000573162
68.5006	0.00055695
69.0006	0.000539783
69.5006	0.000524525
70.0006	0.000507358
70.5006	0.000491146
71.0006	0.000478746
71.5006	0.000463488
72.0006	0.000440599
72.5006	0.000423433
73.0006	0.000407221
73.5006	0.000390055
74.0006	0.000372889
74.5006	0.000360491
75.0006	0.000349047
75.5006	0.000332834
76.0006	0.000318529
76.5006	0.00030327
77.0006	0.000284197
77.5006	0.000271799
78.0006	0.000255587
78.5006	0.000245096
79.0005	0.000227929
79.5005	0.000214578
80.0005	0.000198365
80.5005	0.000185967
81.0005	0.000172616
81.5005	0.000158311
82.0005	0.000141145
82.5005	0.000130654
83.0005	0.00011921
83.5005	9.92E-05
84.0005	8.11E-05
84.5005	5.53E-05
85.0005	4.67E-05
85.5005	3.81E-05
86.0005	4.29E-05
86.5005	4.96E-05
87.0005	5.25E-05
87.5005	4.86E-05
88.0005	5.25E-05
88.5005	5.05E-05
88.9998	4.86E-05
89.5005	4.58E-05
90.0005	4.20E-05
90.5005	4.29E-05
91.0005	4.39E-05
91.5005	4.10E-05
92.0005	3.91E-05
92.5005	4.10E-05
93.0004	3.62E-05
93.5004	3.72E-05
94.0004	3.24E-05
94.5004	3.53E-05
95.0004	3.24E-05
95.5004	3.15E-05
96.0004	3.34E-05
96.5004	2.96E-05
97.0004	3.05E-05
97.5004	3.05E-05
98.0004	2.86E-05
98.5004	2.86E-05
99.0004	2.77E-05
99.5004	2.86E-05
100	2.77E-05
100.5	2.96E-05
101	3.15E-05
101.5	3.05E-05
102	3.53E-05
102.5	3.24E-05
103	3.53E-05
103.5	3.72E-05
104	4.39E-05
104.5	5.05E-05
105	5.15E-05
105.5	5.53E-05
106	6.01E-05
106.5	6.58E-05
107	7.06E-05
107.5	7.92E-05
108	8.39E-05
108.5	8.87E-05
109	9.25E-05
109.5	0.00010109
110	0.000105858
110.5	0.000115395
111	0.000116349
111.5	0.000123979
112	0.000134469
112.5	0.000141145
113	0.000151635
113.5	0.000154496
114	0.000163079
114.5	0.000168801
115	0.000181199
115.5	0.000186921
116	0.000187875
116.5	0.000197412
117	0.000199319
117.5	0.000208856
118	0.000214578
118.5	0.000222207
119	0.000233651
119.5	0.000234605
120	0.000215531
120.5	0.000196458
121	0.000172616
121.5	0.000149728
122	0.000121117
122.5	9.73E-05
123	7.92E-05
123.5	7.92E-05
124	8.01E-05
124.5	8.20E-05
125	8.11E-05
125.5	8.30E-05
126	8.20E-05
126.5	8.49E-05
127	8.77E-05
127.5	9.44E-05
128	9.16E-05
128.5	9.92E-05
129	9.92E-05
129.5	0.000107766
130	0.000114441
130.5	0.000121117
131	0.000125886
131.5	0.000133515
132	0.000136376
132.5	0.000132562
133	0.000131608
133.5	0.000124932
134	0.000116349
134.5	0.000110627
135	0.000105858
135.5	0.000107766
136	0.000108719
136.5	0.000108719
137	0.00010109
137.5	9.63E-05
138	8.68E-05
138.5	8.58E-05
139	7.53E-05
139.5	7.82E-05
140	7.72E-05
140.5	7.72E-05
141	8.58E-05
141.5	7.92E-05
142	8.20E-05
142.5	8.77E-05
143	8.58E-05
143.5	8.77E-05
144	8.77E-05
144.5	8.96E-05
145	8.58E-05
145.5	8.58E-05
146	8.11E-05
146.5	7.72E-05
147	7.44E-05
147.5	7.44E-05
148	7.44E-05
148.5	7.44E-05
149	7.06E-05
149.5	6.77E-05
150	7.15E-05
150	7.25E-05
-33.9987	0.00276567
-33.4987	0.00265791
-32.9987	0.00256158
-32.4987	0.00247099
-31.9987	0.00240327
-31.4987	0.00234129
-30.9987	0.0022812
-30.4987	0.00223733
-29.9987	0.0021887
-29.4987	0.00214864
-28.9987	0.0021124
-28.4987	0.0020733
-27.9987	0.00203802
-27.4987	0.00201131
-26.9987	0.00197984
-26.4987	0.001956
-25.9987	0.00193787
-25.4987	0.00191308
-24.9988	0.001894
-24.4988	0.00186349
-23.9988	0.00184537
-23.4988	0.00183392
-22.9988	0.00182534
-22.4988	0.00182153
-21.9988	0.00181866
-21.4988	0.00181008
-20.9988	0.00180245
-20.4988	0.00179768
-19.9988	0.0017891
-19.4988	0.00177575
-18.9988	0.00177766
-18.4988	0.00176812
-17.9988	0.00177003
-17.4988	0.0017643
-16.9988	0.0017624
-16.4988	0.00176144
-15.9988	0.00175763
-15.4988	0.00175286
-14.9988	0.00174905
-14.4988	0.00175095
-13.9989	0.00175095
-13.4988	0.00174714
-12.9988	0.00175477
-12.4989	0.00175381
-11.9989	0.00175
-11.4989	0.00174523
-10.9989	0.00174523
-10.4989	0.00174523
-9.99887	0.00173951
-9.49887	0.00174046
-8.99887	0.00173951
-8.49889	0.00174332
-7.99889	0.00174046
-7.49889	0.00173856
-6.9989	0.00173951
-6.4989	0.00173379
-5.9989	0.00174142
-5.4989	0.00174046
-4.9989	0.00173951
-4.49892	0.0017376
-3.99892	0.00174237
-3.49895	0.00174428
-2.99927	0.00174428
-2.49893	0.00174428
-1.99893	0.00174237
-1.49893	0.00174237
-0.998932	0.00173665
-0.498947	0.00173856
0.00105286	0.00174046
0.501038	0.00173665
1.00104	0.00174046
1.50104	0.0017376
2.00104	0.00174046
2.50104	0.00172997
3.00104	0.0017252
3.50102	0.0017233
4.00102	0.00172234
4.50101	0.00172044
5.00101	0.00171948
5.50101	0.00172044
6.00101	0.00171567
6.50101	0.00171567
7.001	0.00171567
7.501	0.00171567
8.00098	0.00172044
8.50098	0.00172044
9.00034	0.00171948
9.50058	0.00171567
10.001	0.00171471
10.501	0.00170708
11.001	0.00170232
11.501	0.00169946
12.001	0.00170041
12.5009	0.00170232
13.0009	0.00170232
13.5009	0.00170899
14.0009	0.00170804
14.5009	0.00170899
15.0009	0.00170518
15.5009	0.00170136
16.0009	0.00169946
16.5009	0.0016985
17.0009	0.0016985
17.5009	0.00170327
18.0009	0.00170899
18.5009	0.00171471
19.0009	0.0017109
19.5009	0.00170899
20.0009	0.00170804
20.5009	0.00170422
21.0009	0.00170041
21.5009	0.00170708
22.0008	0.00171376
22.5009	0.00171662
23.0007	0.00171948
23.5005	0.00171948
24.0009	0.00172234
24.5009	0.0017252
25.0009	0.00172997
25.5008	0.00173379
26.0008	0.00173569
26.5008	0.00174714
27.0008	0.00175381
27.5008	0.00175954
28.0008	0.00176812
28.5008	0.00177193
29.0008	0.00178052
29.5008	0.00178433
30.0008	0.00178815
30.5008	0.00178433
31.0008	0.00179387
31.5008	0.00179959
32.0008	0.00180817
32.5007	0.00181962
33.0007	0.00182439
33.5008	0.00183297
34.0008	0.00184537
34.5008	0.00185872
35.0008	0.00187588
35.5008	0.00190259
36.0008	0.00191785
36.5008	0.00193692
37.0008	0.00193978
37.5008	0.0019455
38.0008	0.00195409
38.5007	0.00196172
39.0007	0.00196363
39.5007	0.00197031
40.0007	0.00198175
40.5007	0.00198938
41.0007	0.00199987
41.5007	0.00199987
42.0006	0.00200368
42.5007	0.00200082
43.0007	0.00200178
43.5007	0.00200655
44.0007	0.00199987
44.5007	0.0019951
45.0007	0.00198747
45.5007	0.00199129
46.0007	0.00197507
46.5007	0.00194836
47.0007	0.00191594
47.5007	0.00189114
48.0007	0.00186539
48.5007	0.00183869
49.0007	0.00181008
49.5007	0.00178433
50.0007	0.00175095
50.5007	0.00171853
51.0006	0.0016861
51.5006	0.00165082
52.0006	0.00161839
52.5006	0.00158788
53.0006	0.00156022
53.5006	0.00152493
54.0006	0.00149728
54.5006	0.00146008
55.0006	0.00142575
55.5006	0.0013876
56.0006	0.00135613
56.5	0.00131226
57.0006	0.0012703
57.5006	0.00123502
58.0006	0.00119878
58.5006	0.00116444
59.0006	0.00114251
59.5006	0.00112057
60.0006	0.00109673
60.5006	0.00107194
61.0006	0.00104142
61.5006	0.00101662
62.0006	0.000985153
62.5006	0.000957493
63.0006	0.000932697
63.5006	0.000921253
64.0005	0.000898365
64.5005	0.000867847
65.0005	0.000839237
65.5005	0.00081921
66.0005	0.000795368
66.5005	0.00077248
67.0005	0.00075436
67.5005	0.000739101
68.0005	0.000716213
68.5005	0.000700001
69.0005	0.000675205
69.5005	0.000653271
70.0005	0.000635151
70.5005	0.000612263
71.0005	0.000594143
71.5005	0.000579838
72.0005	0.000564579
72.5005	0.000552181
73.0005	0.000529293
73.5005	0.000515942
74.0005	0.000498775
74.5005	0.0004797
75.0005	0.000457766
75.5005	0.000440599
76.0005	0.000420572
76.5005	0.000406267
77.0005	0.000383379
77.5005	0.000371935
78.0004	0.000352861
78.5004	0.000340464
79.0004	0.000326158
79.5004	0.000305178
80.0004	0.000288965
80.5004	0.000276567
81.0004	0.000262262
81.5004	0.000243188
82.0004	0.000225068
82.5004	0.000211717
83.0004	0.00019455
83.5004	0.00017357
84.0004	0.00014782
84.5004	0.000122071
85.0004	9.54E-05
85.5004	7.72E-05
86.0004	5.53E-05
86.5004	4.01E-05
87.0004	3.62E-05
87.5004	3.34E-05
88.0004	3.81E-05
88.5004	4.20E-05
89.0004	4.20E-05
89.5004	4.67E-05
90.0004	4.86E-05
90.5003	5.15E-05
91.0003	5.53E-05
91.5003	6.39E-05
92.0003	6.58E-05
92.5003	7.06E-05
93.0003	7.44E-05
93.5003	7.92E-05
94.0003	8.49E-05
94.5003	8.58E-05
95.0003	9.06E-05
95.5003	9.73E-05
96.0003	9.82E-05
96.5003	0.000102997
97.0003	0.000108719
97.5003	0.000122071
98.0003	0.000125886
98.5003	0.00012684
99.0003	0.000127793
99.5003	0.000139237
100	0.00014782
100.5	0.000151635
101	0.000151635
101.5	0.000157357
102	0.000164987
102.5	0.000167848
103	0.000176431
103.5	0.000185967
104	0.000192643
104.5	0.000203134
105	0.00021267
105.5	0.000224114
106	0.000241281
106.5	0.000253679
107	0.000270845
107.5	0.000289919
108	0.000302317
108.5	0.000314714
109	0.000333788
109.5	0.000355722
110	0.000370027
110.5	0.00037575
111	0.000390055
111.5	0.000371935
112	0.000335695
112.5	0.000293734
113	0.000241281
113.5	0.000187875
114	0.000149728
114.5	0.000107766
115	8.77E-05
115.5	8.87E-05
116	9.73E-05
116.5	0.000102997
117	0.000104905
117.5	0.000105858
118	0.00010109
118.5	8.68E-05
119	7.92E-05
119.5	7.44E-05
120	7.44E-05
120.5	7.82E-05
121	8.01E-05
121.5	8.77E-05
122	9.63E-05
122.5	0.000102044
123	0.000108719
123.5	0.000121117
124	0.000121117
124.5	0.00011921
125	0.000107766
125.5	9.25E-05
126	7.72E-05
126.5	6.58E-05
127	5.91E-05
127.5	5.82E-05
128	6.10E-05
128.5	6.20E-05
129	6.20E-05
129.5	6.39E-05
130	6.20E-05
130.5	6.10E-05
131	6.10E-05
131.5	5.91E-05
132	5.25E-05
132.5	5.25E-05
133	4.86E-05
133.5	5.05E-05
134	4.86E-05
134.5	4.77E-05
135	4.39E-05
135	4.58E-05
-48.9987	0.00239755
-48.4987	0.0022936
-47.9987	0.00219442
-47.4987	0.0021105
-46.9987	0.00204374
-46.4987	0.0019827
-45.9987	0.00192548
-45.4987	0.00188065
-44.9987	0.00183583
-44.4987	0.00179578
-43.9987	0.0017643
-43.4987	0.00173379
-42.9987	0.00169373
-42.4989	0.00167084
-41.9991	0.00164223
-41.4987	0.00162602
-40.9987	0.00160313
-40.4987	0.00158215
-39.9988	0.00156308
-39.4988	0.00154115
-38.9988	0.00152779
-38.4988	0.00152207
-37.9988	0.00151158
-37.4988	0.00150777
-36.9988	0.00150777
-36.4988	0.00150204
-35.9988	0.00149632
-35.4988	0.00149632
-34.9988	0.00149251
-34.4988	0.00148106
-33.9988	0.00148488
-33.4988	0.00148679
-32.9989	0.00148583
-32.4988	0.00148583
-31.9988	0.00148583
-31.4988	0.00148488
-30.9988	0.00148297
-30.4988	0.00148679
-29.9988	0.00148965
-29.4988	0.00148679
-28.9988	0.00149442
-28.4988	0.00149823
-27.9988	0.00149918
-27.4989	0.00150014
-26.9989	0.001503
-26.4989	0.00150872
-25.9989	0.00150777
-25.4989	0.00151253
-24.9989	0.00151444
-24.4989	0.00151349
-23.9989	0.00151921
-23.4989	0.00152398
-22.9989	0.00152779
-22.4993	0.00152779
-21.9992	0.00153161
-21.4989	0.00153638
-20.9989	0.00153638
-20.4995	0.00153924
-19.9989	0.00154973
-19.4989	0.00155164
-18.9989	0.0015564
-18.4989	0.00155926
-17.9989	0.00156594
-17.4989	0.00156689
-16.9989	0.00156785
-16.4989	0.00157071
-15.9989	0.00157262
-15.4989	0.00157834
-14.9989	0.0015812
-14.499	0.00158788
-13.999	0.00158788
-13.499	0.00158883
-12.999	0.00158788
-12.499	0.00158978
-11.999	0.00158788
-11.499	0.00159169
-10.999	0.00159169
-10.499	0.00159074
-9.99899	0.00159169
-9.49899	0.00159646
-8.99899	0.00159646
-8.49899	0.00160123
-7.999	0.00160027
-7.499	0.00160504
-6.99902	0.00161172
-6.49902	0.00161172
-5.99902	0.00161649
-5.49902	0.00161458
-4.99902	0.00161649
-4.49903	0.00161744
-3.99903	0.00161362
-3.49904	0.00161649
-2.99904	0.00161744
-2.49905	0.00162316
-1.99905	0.00162507
-1.49905	0.00162984
-0.999062	0.00163365
-0.499062	0.0016327
0.000938416	0.00163365
0.500931	0.00163461
1.00093	0.00162984
1.50092	0.00163365
2.00068	0.00163747
2.50027	0.00163842
3.00091	0.001647
3.50091	0.00164796
4.00091	0.00164986
4.5009	0.00164986
5.0009	0.00164891
5.50089	0.00164605
6.00089	0.00165082
6.50088	0.00165177
7.00088	0.00164986
7.50088	0.00165082
8.00087	0.00165082
8.50087	0.00164891
9.00087	0.00165177
9.50086	0.00164796
10.0009	0.00164986
10.5006	0.00164796
11.0008	0.00164796
11.5008	0.001647
12.0008	0.00164796
12.5008	0.001647
13.0008	0.00164605
13.5008	0.00164891
14.0008	0.00164033
14.5008	0.00163365
15.0008	0.00163365
15.5008	0.00162984
16.0008	0.00162793
16.5008	0.00162602
17.0008	0.00162507
17.5008	0.0016203
18.0008	0.00161839
18.5007	0.00161267
19.0008	0.0016079
19.5008	0.00160599
20.0008	0.00160409
20.5008	0.00160123
21.0008	0.00159837
21.5008	0.00158978
22.0008	0.00158311
22.5008	0.00157738
23.0008	0.00157262
23.5007	0.0015688
24.0007	0.0015688
24.5007	0.00156785
25.0007	0.00156976
25.5007	0.00157166
26.0007	0.00156594
26.5007	0.00156499
27.0007	0.00156022
27.5006	0.0015564
28.0007	0.00155259
28.5007	0.0015545
29.0007	0.00154973
29.5007	0.00154591
30.0007	0.00154401
30.5007	0.00153924
31.0007	0.00153447
31.5007	0.00152779
32.0007	0.00152112
32.5007	0.00151826
33.0007	0.00151635
33.5007	0.00150967
34.0007	0.00151253
34.5007	0.00150872
35.0007	0.00150777
35.5007	0.00150586
36.0006	0.00150109
36.5006	0.00150204
37.0006	0.00150204
37.5006	0.00150967
38.0006	0.00151063
38.5006	0.00151635
39.0006	0.00152398
39.5006	0.00152589
40.0006	0.00153542
40.5006	0.00154305
41.0006	0.00154973
41.5006	0.0015564
42.0006	0.00155926
42.5006	0.00157357
43.0006	0.00158501
43.5006	0.00160123
44.0006	0.00162698
44.5006	0.00164414
45.0006	0.00166894
45.5006	0.00169373
46.0006	0.00171662
46.5006	0.00174428
47.0006	0.00176812
47.5006	0.00179578
48.0006	0.0018282
48.5006	0.00186826
49.0005	0.00189591
49.5005	0.00192929
50.0005	0.00197031
50.5005	0.00200368
51.0005	0.00205709
51.5005	0.00211431
52.0005	0.00219156
52.5005	0.00227167
53.0005	0.00234415
53.5005	0.0024109
54.0005	0.00246908
54.5005	0.00251772
55.0005	0.00258256
55.5005	0.00262262
56.0005	0.00266172
56.5005	0.00271322
57.0005	0.00277139
57.5005	0.00282003
58.0005	0.00289156
58.5005	0.00294305
59.0005	0.00299932
59.5005	0.00306703
60.0005	0.00308706
60.5005	0.00310709
61.0005	0.00313188
61.5005	0.00315477
62.0005	0.00317289
62.5005	0.00317766
63.0002	0.0031891
63.5004	0.00317766
64.0004	0.00316621
64.5004	0.00313284
65.0004	0.00311376
65.5004	0.0030985
66.0004	0.00303556
66.5004	0.00296976
67.0004	0.00290205
67.5004	0.00281908
68.0004	0.00277139
68.5004	0.00268938
69.0004	0.00262834
69.5004	0.00256635
70.0004	0.00251867
70.5004	0.00246049
70.9987	0.00239851
71.5004	0.00231363
72.0004	0.00223829
72.5004	0.0021639
73.0004	0.00207902
73.5004	0.00198652
74.0004	0.00189305
74.5004	0.00180436
75.0004	0.00172902
75.5003	0.00166512
76.0003	0.00158501
76.5003	0.00152016
77.0003	0.00145913
77.5003	0.00140191
78.0003	0.00133229
78.5003	0.0012703
79.0003	0.00121213
79.5003	0.00116254
80.0003	0.00111295
80.5003	0.00106526
81.0003	0.00101567
81.5003	0.000963215
82.0003	0.00092316
82.5003	0.00089455
83.0003	0.000859264
83.5003	0.000813488
84.0003	0.000765804
84.5003	0.000699047
85.0003	0.000604633
85.5003	0.000501636
86.0003	0.000401499
86.5003	0.000322344
87.0003	0.000250818
87.5003	0.00020218
88.0001	0.000192643
88.4998	0.000188828
89.0002	0.000199319
89.4997	0.000213624
90.0002	0.000216485
90.5002	0.000224114
91.0002	0.000240327
91.5002	0.000251772
92.0002	0.000269892
92.5002	0.000281336
93.0002	0.000302317
93.5002	0.000312807
94.0002	0.000326158
94.5002	0.000344278
95.0002	0.000359537
95.5002	0.000370027
96.0002	0.000381472
96.5002	0.000395777
97.0002	0.000419619
97.5002	0.000435831
98.0002	0.000456812
98.5002	0.000482561
99.0002	0.000510219
99.5002	0.000546459
100	0.000581745
100.5	0.000609402
100.999	0.000646595
101.5	0.000685696
102	0.000720028
102.5	0.000753406
103	0.000779156
103.5	0.000760082
104	0.000683788
104.5	0.000593189
105	0.000489239
105.5	0.000382425
106	0.000277521
106.5	0.000156404
107	8.96E-05
107.5	7.34E-05
108	7.72E-05
108.5	8.58E-05
109	9.44E-05
109.5	0.000110627
110	0.000130654
110.5	0.000148774
111	0.000176431
111.5	0.000210763
112	0.000241281
112.5	0.000236512
113	0.00021267
113.5	0.000170709
114	0.000125886
114.5	8.11E-05
115	4.86E-05
115.5	4.58E-05
116	4.39E-05
116.5	4.39E-05
117	4.20E-05
117.5	4.29E-05
118	3.91E-05
118.5	3.81E-05
119	3.81E-05
119.5	3.72E-05
120	3.72E-05
120	3.72E-05
-63.9987	0.00201418
-63.4987	0.00191022
-62.9987	0.00180627
-62.4987	0.00171662
-61.9987	0.00165082
-61.4987	0.00158692
-60.9987	0.00153065
-60.4987	0.00147916
-59.9987	0.00142957
-59.4987	0.00139237
-58.9987	0.00135899
-58.4987	0.00132657
-57.9987	0.00129128
-57.4991	0.00126267
-56.9987	0.00123502
-56.4987	0.00121785
-55.9987	0.00119496
-55.4987	0.00117303
-54.9988	0.00115014
-54.4988	0.00113107
-53.9988	0.00111771
-53.4988	0.00110913
-52.9988	0.00110055
-52.4988	0.00109578
-51.9988	0.00109101
-51.4988	0.00109387
-50.9988	0.00108243
-50.4988	0.00108052
-49.9988	0.00107575
-49.4988	0.00107194
-48.9988	0.00107289
-48.4988	0.00106908
-47.9988	0.00107289
-47.4988	0.00107575
-46.9988	0.00107575
-46.4988	0.0010748
-45.9988	0.0010748
-45.4988	0.00107861
-44.9988	0.00108434
-44.4988	0.00108624
-43.9988	0.00109292
-43.4988	0.00109578
-42.9988	0.00109578
-42.4989	0.00110436
-41.9989	0.00110532
-41.4989	0.00111104
-40.9989	0.0011139
-40.4989	0.00111962
-39.9989	0.00112057
-39.4989	0.0011282
-38.9989	0.0011282
-38.4989	0.00113107
-37.9989	0.00113965
-37.4989	0.00114537
-36.9989	0.00114632
-36.4989	0.00115395
-35.9989	0.00115968
-35.4989	0.00116444
-34.9989	0.00116826
-34.4989	0.00117398
-33.9989	0.00118066
-33.4989	0.00118829
-32.9989	0.00119019
-32.4989	0.00119878
-31.9989	0.00120259
-31.4989	0.00120736
-30.9989	0.00121308
-30.4989	0.00121785
-29.9989	0.00122453
-29.499	0.00122643
-28.999	0.0012312
-28.499	0.00123502
-27.999	0.00123978
-27.499	0.00124169
-26.999	0.00124646
-26.499	0.00124837
-25.999	0.00125504
-25.499	0.0012579
-24.999	0.00126267
-24.499	0.00126839
-23.999	0.00127126
-23.499	0.00127602
-22.999	0.00128175
-22.499	0.00128747
-21.999	0.00129128
-21.499	0.00129796
-20.999	0.00130368
-20.499	0.00130273
-19.999	0.00130654
-19.499	0.00131131
-18.999	0.00131322
-18.499	0.00132085
-17.999	0.00132371
-17.4991	0.00132848
-17.0002	0.00133229
-16.4991	0.00133801
-15.9991	0.00134183
-15.4991	0.00135041
-14.9991	0.00134946
-14.4991	0.00135041
-13.9991	0.00135518
-13.4991	0.00135995
-12.9991	0.00136567
-12.4991	0.00137425
-11.9991	0.00137521
-11.4991	0.00137902
-10.9991	0.00138284
-10.4991	0.00138951
-9.9991	0.00139142
-9.49911	0.00139333
-8.99911	0.00139619
-8.49912	0.00140191
-7.99912	0.00140382
-7.49912	0.00140572
-6.99913	0.00140954
-6.49913	0.00141431
-5.99913	0.00141526
-5.49914	0.00141812
-4.99915	0.00142194
-4.49915	0.0014248
-3.99915	0.00142766
-3.49915	0.00143147
-2.99916	0.00143719
-2.49916	0.00143338
-1.99916	0.00143529
-1.49917	0.00143815
-0.999176	0.00143529
-0.499184	0.00143719
0.000816345	0.00144101
0.500809	0.00144292
1.00081	0.0014391
1.50081	0.00144196
2.0008	0.00144101
2.5008	0.0014391
3.00079	0.00144196
3.50079	0.0014391
4.00079	0.00144196
4.50078	0.0014391
5.00078	0.00143624
5.50078	0.0014391
6.00077	0.00143052
6.50077	0.00143052
7.00077	0.00143338
7.50076	0.00142957
8.00076	0.00143147
8.50075	0.00143052
9.00075	0.00142861
9.50075	0.00143052
10.0007	0.00142861
10.5007	0.00142957
11.0007	0.00142766
11.5006	0.00142861
12.0007	0.00142384
12.5007	0.0014267
13.0007	0.00142575
13.5007	0.00142289
14.0007	0.00141907
14.5007	0.00142098
15.0007	0.00141812
15.5007	0.00141145
16.0007	0.00141049
16.5007	0.00140668
17.0007	0.00139809
17.5007	0.00139523
18.0007	0.00139237
18.5007	0.0013876
19.0007	0.0013857
19.5007	0.00138284
20.0006	0.00137711
20.5007	0.00137234
21.0006	0.0013733
21.5006	0.00137521
22.0006	0.00136758
22.5006	0.00136758
23.0006	0.00135804
23.5006	0.00135613
24.0006	0.00135422
24.5006	0.00135232
25.0006	0.00135518
25.5006	0.0013485
26.0006	0.00133897
26.5006	0.00133324
27.0006	0.00133038
27.5006	0.00132561
28.0006	0.00132752
28.5006	0.00132371
29.0006	0.00131894
29.5006	0.00131989
30.0006	0.00131894
30.5006	0.00131703
31.0006	0.00131512
31.5006	0.00131036
32.0006	0.00131417
32.5006	0.00130749
33.0006	0.00130273
33.5006	0.00130273
34.0005	0.00130082
34.5005	0.00129605
35.0005	0.00129128
35.5005	0.00129128
36.0005	0.00129128
36.5005	0.00128842
37.0005	0.00128747
37.5005	0.00128747
38.0003	0.00128842
38.5005	0.00128747
39.0005	0.00128938
39.5005	0.00128842
40.0005	0.0012951
40.5005	0.00129987
41.0005	0.00130368
41.5005	0.00130368
42.0005	0.00130559
42.5005	0.00131417
43.0005	0.00131989
43.5005	0.00132657
44.0005	0.00133038
44.5005	0.00134087
45.0004	0.0013485
45.5005	0.00135613
46.0005	0.0013609
46.5005	0.00137234
47.0005	0.00139237
47.5005	0.00141431
48.0004	0.00143719
48.5004	0.00146676
49.0004	0.0014906
49.5004	0.00152398
50.0004	0.00155926
50.5004	0.0015955
51.0004	0.00162984
51.5004	0.00167084
52.0004	0.00172139
52.5004	0.00177003
53.0004	0.00183106
53.5004	0.001894
54.0004	0.0019684
54.5004	0.00204565
55.0004	0.00213434
55.5004	0.00223352
56.0004	0.00234701
56.5004	0.00245477
57.0002	0.00258638
57.5002	0.00273229
58.0004	0.00290109
58.5004	0.00307848
59.0004	0.00326063
59.5004	0.0034609
60.0004	0.00368883
60.5003	0.00393298
61.0003	0.00418571
61.5003	0.00443843
62.0003	0.00470546
62.5003	0.00498584
63.0003	0.00527957
63.5003	0.00559524
64.0003	0.00597003
64.5003	0.0063124
65.0003	0.00669482
65.5003	0.00713542
66.0003	0.00757602
66.5003	0.00804907
67.0003	0.0085488
67.5003	0.00905806
68.0003	0.00959116
68.5003	0.0101872
69.0003	0.0106078
69.5003	0.0111304
70.0003	0.0117016
70.5003	0.0122395
71.0003	0.0127402
71.5003	0.0132723
72.0003	0.0137864
72.5003	0.0143204
73.0002	0.0148125
73.5002	0.0151663
74.0002	0.0155268
74.5002	0.015936
75.0002	0.0161906
75.5002	0.0165149
76.0002	0.0167629
76.5002	0.0168477
77.0002	0.016739
77.5002	0.0166599
78.0002	0.0164405
78.5002	0.016287
79.0002	0.0160018
79.5002	0.0157729
80.0002	0.015605
80.5002	0.0153828
81.0002	0.0149298
81.5002	0.0144311
82.0002	0.0138436
82.5002	0.0131045
83.0002	0.0120965
83.5002	0.0107146
84.0002	0.00890547
84.5002	0.00710586
85.0002	0.0052624
85.5002	0.00362684
86.0001	0.00223638
86.5001	0.00129033
87.0001	0.000909809
87.5001	0.000877384
88.0001	0.00088406
88.5001	0.000896458
89.0001	0.000914577
89.5001	0.0009594
90.0001	0.000988014
90.5001	0.00102235
91.0001	0.00108052
91.5001	0.00111104
92.0001	0.00117017
92.5001	0.00124551
93.0001	0.00127507
93.5001	0.00134373
94.0001	0.00142194
94.5001	0.00154877
95.0001	0.00160695
95.5001	0.00152398
96.0001	0.0013876
96.5001	0.00124265
97.0001	0.00110436
97.5001	0.000922207
98.0001	0.000726704
98.5001	0.000604633
99	0.000657085
99.5	0.00080109
100	0.000892643
100.5	0.000851635
101	0.000769619
101.5	0.000647549
102	0.000473024
102.5	0.00028515
103	8.20E-05
103.5	4.10E-05
104	4.67E-05
104.5	5.05E-05
105	5.53E-05
105	5.72E-05
