Photodiode Viewing Angle (Degrees) - Plot 0	Lock-in Signal Amplitude (V) - Plot 0
-18.9987	0.0027466
-18.4987	0.00266649
-17.9987	0.00260927
-17.4989	0.00255586
-16.9987	0.00250627
-16.4987	0.00246049
-15.9987	0.00241853
-15.4987	0.00237657
-14.9987	0.00234605
-14.4987	0.00231172
-13.9987	0.00228502
-13.4987	0.00225832
-12.9987	0.00223924
-12.4987	0.00221635
-11.9987	0.0022011
-11.4987	0.00218965
-10.9988	0.00217439
-10.4987	0.00216676
-9.99876	0.00214769
-9.49876	0.00213625
-8.99876	0.0021248
-8.49876	0.00210954
-7.99876	0.0020981
-7.49878	0.00209047
-6.99878	0.00208665
-6.49878	0.00208284
-5.99879	0.00207902
-5.49879	0.00207521
-4.99879	0.00206377
-4.49879	0.00205614
-3.99879	0.00204469
-3.49886	0.00203325
-2.99937	0.00204088
-2.49936	0.00203325
-1.99883	0.00203706
-1.49883	0.00202943
-0.998825	0.00202562
-0.498825	0.0020218
0.00117493	0.00201418
0.50116	0.00201036
1.00116	0.00200655
1.50116	0.00200655
2.00116	0.00200655
2.50114	0.00200655
3.00114	0.00199892
3.50114	0.00199129
4.00113	0.00199129
4.5005	0.00197984
5.00075	0.00197984
5.50104	0.00197984
6.00113	0.00197603
6.50111	0.00197221
7.00111	0.00196458
7.50111	0.00196458
8.0011	0.00195695
8.5011	0.00195695
9.0011	0.00195314
9.5011	0.00194932
10.0011	0.0019455
10.5011	0.0019455
11.0009	0.00193406
11.5008	0.00193406
12.0008	0.00192643
12.5011	0.00192643
13.0011	0.00192261
13.5011	0.00192261
14.0011	0.0019188
14.5011	0.00190736
15.0011	0.00189973
15.501	0.00189973
16.001	0.0018921
16.501	0.00188828
17.001	0.00188065
17.501	0.00187684
18.001	0.00186539
18.501	0.00186158
19.001	0.00184632
19.501	0.00184632
20.001	0.00183488
20.501	0.00182725
21.001	0.00181962
21.501	0.0018158
22.001	0.00181199
22.501	0.00180054
23.001	0.00179673
23.501	0.00179673
24.001	0.00179292
24.501	0.00178529
25.001	0.00177766
25.501	0.00177003
26.001	0.00175858
26.501	0.00174332
27.001	0.00173188
27.5009	0.00173569
28.0009	0.00172044
28.5009	0.00171281
29.0009	0.00171281
29.5009	0.00170518
30.0009	0.00169373
30.5009	0.00167847
31.0009	0.00166703
31.5009	0.0016594
32.0009	0.00164414
32.5009	0.00163651
33.0009	0.00163651
33.5009	0.00162888
34.0009	0.00161744
34.5009	0.00160599
35.0009	0.00158692
35.5009	0.00157548
36.0009	0.00156403
36.5009	0.00155259
37.0009	0.00154496
37.5009	0.00153352
38.0009	0.00152589
38.5009	0.00151063
39.0009	0.00149537
39.5009	0.00148011
40.0009	0.00147248
40.5008	0.00145341
41.0008	0.00143815
41.5008	0.00142289
42.0008	0.00141526
42.5008	0.00140763
43.0008	0.00139237
43.5008	0.00137711
44.0008	0.00136185
44.5008	0.0013466
45.0008	0.00132752
45.5008	0.00131226
46.0008	0.00130082
46.5008	0.00128175
47.0008	0.00126649
47.5008	0.00125504
48.0008	0.00123978
48.5008	0.00122071
49.0008	0.00120927
49.5008	0.00118638
50.0008	0.0011673
50.5008	0.00115205
51.0008	0.00113297
51.5008	0.0011139
52.0008	0.00108338
52.5008	0.00106812
53.0008	0.00104523
53.5007	0.00102616
54.0007	0.00100327
54.5007	0.000984199
55.0007	0.000968937
55.5007	0.000949863
56.0007	0.00092316
56.5007	0.000904087
57.0007	0.000877384
57.5006	0.000850681
58.0007	0.000827793
58.5007	0.000804905
59.0007	0.000774387
59.5007	0.000747684
60.0007	0.000720982
60.5007	0.000690464
61.0007	0.000659946
61.5007	0.000629429
62.0007	0.000595096
62.5007	0.000564579
63.0007	0.000526432
63.5007	0.000495914
64.0007	0.00046158
64.5007	0.000431063
65.0007	0.00039673
65.5007	0.000366213
66.0006	0.000331881
66.5006	0.000301363
67.0006	0.000278475
67.5003	0.000247957
68.0006	0.000221253
68.5006	0.00020218
69.0006	0.000183106
69.5006	0.000160218
70.0006	0.000144959
70.5006	0.000122071
71.0006	0.000110627
71.5006	9.54E-05
72.0006	8.77E-05
72.5006	7.63E-05
73.0006	6.49E-05
73.5006	6.10E-05
74.0006	5.34E-05
74.4995	4.96E-05
74.9997	4.96E-05
75.4989	4.58E-05
76.0006	4.58E-05
76.5006	4.58E-05
77.0006	4.58E-05
77.5006	4.58E-05
78.0006	4.20E-05
78.5006	4.58E-05
79.0005	4.96E-05
79.5005	4.96E-05
80.0005	4.96E-05
80.5005	4.96E-05
81.0005	4.96E-05
81.5005	4.96E-05
82.0005	5.34E-05
82.5005	5.34E-05
83.0005	5.72E-05
83.5005	5.72E-05
84.0005	5.72E-05
84.5005	6.10E-05
85.0005	6.10E-05
85.5005	6.87E-05
86.0005	6.87E-05
86.5005	7.25E-05
87.0005	7.25E-05
87.5005	6.87E-05
88.0005	7.25E-05
88.5005	6.87E-05
89.0005	6.87E-05
89.5005	6.87E-05
90.0005	6.87E-05
90.5005	6.87E-05
91.0005	6.49E-05
91.5005	6.87E-05
92.0005	6.87E-05
92.5005	6.49E-05
93.0004	6.87E-05
93.5004	6.10E-05
94.0004	6.49E-05
94.5004	6.10E-05
95.0004	6.10E-05
95.5004	6.10E-05
96.0004	6.10E-05
96.5004	6.10E-05
97.0004	6.10E-05
97.5004	5.72E-05
98.0004	5.72E-05
98.5004	5.72E-05
99.0004	5.34E-05
99.5004	5.34E-05
100	5.34E-05
100.5	5.34E-05
101	4.96E-05
101.5	4.96E-05
102	4.96E-05
102.5	4.96E-05
103	4.20E-05
103.5	4.20E-05
104	3.81E-05
104.5	3.81E-05
105	3.05E-05
105.5	2.67E-05
106	2.67E-05
106.5	2.67E-05
107	2.29E-05
107.5	1.91E-05
108	2.29E-05
108.5	2.29E-05
109	1.91E-05
109.5	1.53E-05
110	1.91E-05
110.5	1.53E-05
111	1.14E-05
111.5	1.14E-05
112	1.53E-05
112.5	1.53E-05
113	1.14E-05
113.5	1.14E-05
114	1.14E-05
114.5	1.14E-05
115	1.14E-05
115.5	1.14E-05
116	7.63E-06
116.5	1.14E-05
117	1.14E-05
117.5	7.63E-06
118	1.14E-05
118.5	1.14E-05
119	1.91E-05
119.5	1.53E-05
120	1.91E-05
120.5	1.53E-05
121	1.53E-05
121.5	1.91E-05
122	1.91E-05
122.5	2.29E-05
123	2.29E-05
123.5	2.67E-05
124	2.67E-05
124.5	2.67E-05
125	3.81E-05
125.5	4.20E-05
126	5.72E-05
126.5	8.77E-05
127	0.000114441
127.5	0.000152589
128	0.000179292
128.5	0.000198365
129	0.000209809
129.5	0.000213624
130	0.000225068
130.5	0.000240327
131	0.000259401
131.5	0.000263216
132	0.000244142
132.499	0.000221253
132.999	0.000183106
133.499	0.000141145
133.999	0.000102997
134.499	6.10E-05
135	4.58E-05
135.5	3.81E-05
136	3.43E-05
136.5	3.43E-05
137	3.43E-05
137.5	3.43E-05
138	3.81E-05
138.5	3.81E-05
139	3.81E-05
139.5	3.81E-05
140	3.81E-05
140.5	3.43E-05
141	3.81E-05
141.5	3.81E-05
142	3.81E-05
142.5	3.81E-05
143	3.81E-05
143.5	4.20E-05
144	4.20E-05
144.5	4.20E-05
145	4.20E-05
145.5	3.81E-05
146	4.20E-05
146.5	4.20E-05
147	3.81E-05
147.5	4.20E-05
148	3.81E-05
148.5	4.58E-05
149	4.20E-05
149.5	4.20E-05
150	4.20E-05
150	3.81E-05
-33.9988	0.00231554
-33.4991	0.00224687
-32.999	0.00218202
-32.4987	0.00212862
-31.9987	0.00208665
-31.4987	0.00204851
-30.9987	0.00200655
-30.4987	0.00197603
-29.9987	0.0019455
-29.4987	0.00192261
-28.9987	0.00189591
-28.4987	0.00187684
-27.9987	0.00186158
-27.4987	0.00184632
-26.9987	0.00183106
-26.4987	0.00181962
-25.9987	0.00180817
-25.4992	0.00180054
-24.9991	0.00179292
-24.4992	0.0017891
-23.9995	0.00177384
-23.5	0.00176621
-22.9988	0.00177384
-22.4988	0.0017624
-21.9988	0.00176621
-21.4988	0.00176621
-20.9988	0.00176621
-20.4988	0.0017624
-19.9988	0.00175858
-19.4988	0.00175095
-18.9988	0.00175095
-18.4988	0.00175095
-17.9988	0.00175477
-17.4988	0.00175477
-16.9988	0.00175858
-16.4988	0.0017624
-16.0001	0.00175858
-15.5005	0.00175858
-15.0009	0.0017624
-14.5001	0.0017624
-13.9988	0.00176621
-13.4988	0.00176621
-12.9988	0.00177003
-12.4989	0.00177003
-11.9989	0.00177384
-11.4989	0.00177384
-10.9989	0.00176621
-10.4989	0.00176621
-9.99887	0.00177003
-9.49887	0.00177384
-8.99887	0.00177384
-8.49889	0.00177766
-7.99889	0.00177766
-7.49889	0.00178147
-6.9989	0.00178529
-6.4989	0.00179292
-5.9989	0.00179292
-5.4989	0.00178529
-4.9989	0.00179292
-4.49892	0.00179292
-3.99892	0.00179292
-3.49893	0.00179292
-2.99893	0.00179673
-2.49893	0.00180054
-1.99893	0.00180436
-1.49893	0.00180054
-0.998932	0.00180817
-0.498947	0.00180436
0.00105286	0.00180054
0.501038	0.00180436
1.00104	0.00180054
1.50104	0.00180817
2.00104	0.00180436
2.50104	0.00180054
3.00104	0.00180054
3.50102	0.00179673
4.00102	0.00179292
4.50101	0.00179292
5.00101	0.00179292
5.50101	0.00179292
6.00101	0.00179292
6.50101	0.00179673
7.001	0.00180054
7.501	0.00179292
8.00098	0.00180054
8.50098	0.00180436
9.00098	0.00180817
9.50098	0.00180436
10.001	0.00180436
10.501	0.00179673
11.001	0.00179292
11.501	0.00179292
12.001	0.0017891
12.5009	0.0017891
13.0009	0.0017891
13.5009	0.0017891
14.0009	0.00179292
14.5009	0.0017891
15.0009	0.00178529
15.5009	0.00177003
16.0009	0.00177003
16.5009	0.00176621
17.0009	0.00176621
17.5009	0.00176621
18.0009	0.00177003
18.5009	0.00176621
19.0009	0.0017624
19.5009	0.0017624
20.0009	0.00175477
20.5009	0.00174332
21.0009	0.00174714
21.5001	0.00174332
22.0002	0.00173951
22.5009	0.00174332
23.0009	0.00173569
23.5009	0.00173951
24.0009	0.00172807
24.5009	0.00172044
25.0009	0.00172044
25.5008	0.00172044
26.0008	0.00171281
26.5008	0.00171281
27.0008	0.00170136
27.5008	0.00169755
28.0008	0.00169755
28.5008	0.00169373
29.0008	0.00169373
29.5008	0.00168992
30.0008	0.00167847
30.5008	0.00167466
31.0008	0.00166322
31.5008	0.00166322
32.0008	0.00166322
32.5008	0.00165177
33.0008	0.00165177
33.5008	0.00164796
34.0008	0.00164033
34.5008	0.00163651
35.0008	0.00162888
35.5008	0.00162125
36.0008	0.00161744
36.5008	0.00160599
37.0008	0.00159074
37.5008	0.00158311
38.0008	0.00157166
38.5007	0.00156403
39.0007	0.0015564
39.5007	0.0015564
40.0007	0.0015564
40.5007	0.00154877
41.0007	0.00154496
41.5007	0.00154115
42.0007	0.0015297
42.5007	0.00151826
43.0007	0.00151063
43.5007	0.00150681
44.0007	0.001503
44.5007	0.00149537
45.0007	0.00148011
45.5007	0.0014763
46.0007	0.00146867
46.5007	0.00144959
47.0007	0.00144196
47.5007	0.0014267
48.0007	0.00141907
48.5007	0.00141145
49.0007	0.0014
49.5007	0.00139237
50.0007	0.00138093
50.5007	0.00136948
51.0006	0.00135422
51.5006	0.00134278
52.0006	0.00132752
52.5006	0.00131226
53.0006	0.00130082
53.5006	0.00128938
54.0006	0.00127793
54.5006	0.00126267
55.0006	0.0012436
55.5006	0.00122071
56.0006	0.00120545
56.5006	0.00118638
57.0006	0.00116349
57.5006	0.0011406
58.0003	0.00112153
58.5003	0.00109864
59.0006	0.00106812
59.5006	0.00105286
60.0006	0.00103379
60.5006	0.00100327
61.0006	0.00097657
61.5006	0.000946049
62.0006	0.000911716
62.5006	0.000877384
63.0006	0.000843052
63.5006	0.000804905
64.0005	0.000770573
64.5005	0.000728611
65.0005	0.000686649
65.5005	0.000640873
66.0005	0.000602726
66.5005	0.000560764
67.0005	0.000522617
67.5005	0.000488285
68.0005	0.00046158
68.5005	0.000427248
69.0005	0.000392916
69.5005	0.000366213
70.0005	0.00033951
70.5005	0.000316622
71.0005	0.000289919
71.5005	0.000267031
72.0005	0.000255587
72.5005	0.000236512
73.0005	0.000217439
73.5005	0.00020218
74.0005	0.000190736
74.5005	0.000179292
75.0005	0.000167848
75.5005	0.000156404
76.0005	0.000144959
76.5005	0.00013733
76.9993	0.000129701
77.5005	0.000129701
78.0004	0.000114441
78.5004	0.000110627
79.0004	0.000102997
79.5004	9.16E-05
80.0004	9.16E-05
80.5004	8.01E-05
81.0004	7.63E-05
81.5004	7.25E-05
82.0004	6.87E-05
82.5004	5.72E-05
83.0004	5.34E-05
83.5004	4.96E-05
84.0004	4.20E-05
84.5004	2.67E-05
85.0004	2.29E-05
85.5004	3.05E-05
86.0004	3.43E-05
86.5004	4.58E-05
87.0004	4.58E-05
87.5004	4.58E-05
88.0004	4.20E-05
88.5004	4.58E-05
89.0004	4.20E-05
89.5004	3.81E-05
90.0004	3.81E-05
90.5003	3.43E-05
91.0003	3.43E-05
91.5003	3.43E-05
92.0003	3.05E-05
92.5003	2.67E-05
93.0003	2.67E-05
93.5003	2.67E-05
94.0003	2.67E-05
94.5003	2.29E-05
95.0003	2.29E-05
95.5003	2.29E-05
96.0003	2.29E-05
96.5003	2.29E-05
97.0003	2.29E-05
97.5003	2.29E-05
98.0003	2.29E-05
98.5003	2.29E-05
99.0003	2.29E-05
99.5003	1.91E-05
100	1.91E-05
100.5	2.29E-05
101	1.91E-05
101.5	2.29E-05
102	2.29E-05
102.5	2.29E-05
103	1.91E-05
103.5	1.91E-05
104	1.53E-05
104.5	1.53E-05
105	1.53E-05
105.5	1.53E-05
106	1.53E-05
106.5	1.14E-05
107	1.14E-05
107.5	1.14E-05
108	1.14E-05
108.5	7.63E-06
109	1.14E-05
109.5	1.53E-05
110	1.53E-05
110.5	1.91E-05
111	3.43E-05
111.5	5.72E-05
112	8.77E-05
112.5	0.000118256
113	0.000144959
113.5	0.000164033
114	0.000183106
114.5	0.000186921
115	0.00019455
115.5	0.000205995
116	0.000225068
116.5	0.000240327
117	0.000259401
117.5	0.000267031
118	0.000278475
118.5	0.000289919
119	0.000297548
119.5	0.000301363
120	0.000297548
120.5	0.000267031
121	0.000232697
121.5	0.000183106
122	0.00013733
122.5	8.77E-05
123	4.96E-05
123.5	2.67E-05
124	2.67E-05
124.5	2.67E-05
125	3.05E-05
125.5	2.67E-05
126	3.05E-05
126.5	3.05E-05
127	3.05E-05
127.5	3.43E-05
128	3.05E-05
128.5	3.43E-05
129	3.05E-05
129.5	2.67E-05
130	3.05E-05
130.499	3.43E-05
130.999	3.43E-05
131.499	3.43E-05
132	3.43E-05
132.5	3.43E-05
133	3.43E-05
133.5	3.43E-05
134	3.43E-05
134.5	3.43E-05
135	3.43E-05
135	3.43E-05
-48.9987	0.00160981
-48.4987	0.00153352
-47.9987	0.0014763
-47.4987	0.00142289
-46.9987	0.0013733
-46.4987	0.00133897
-45.9987	0.001297
-45.4987	0.00125886
-44.9987	0.00123215
-44.4987	0.00120164
-43.9987	0.00117875
-43.4987	0.00115586
-42.9987	0.0011406
-42.4987	0.00112534
-41.9987	0.00111008
-41.4987	0.00109864
-40.9987	0.00109101
-40.4987	0.00107957
-39.9988	0.00106812
-39.4988	0.00106049
-38.9988	0.00105286
-38.4988	0.00104905
-37.9988	0.00104142
-37.4988	0.00103379
-36.9988	0.00102998
-36.4988	0.00102616
-35.9988	0.00102616
-35.4988	0.00102616
-34.9988	0.00102616
-34.4988	0.00102616
-33.9988	0.00102616
-33.4988	0.00102616
-32.9988	0.00102616
-32.4988	0.00102998
-31.9988	0.00102998
-31.4988	0.00103379
-30.9988	0.00103379
-30.4988	0.00103761
-29.9988	0.00103761
-29.4988	0.00103761
-28.9988	0.00104523
-28.4988	0.00104905
-27.9988	0.00104905
-27.4989	0.00105286
-26.9989	0.00105286
-26.4989	0.00105668
-25.9989	0.00105668
-25.4989	0.00105668
-24.9989	0.00106812
-24.4989	0.00106812
-23.999	0.00107194
-23.499	0.00107575
-22.9991	0.00107957
-22.4991	0.00107957
-21.9996	0.00108338
-21.4989	0.0010872
-20.9989	0.00109101
-20.4989	0.00109864
-19.9989	0.00109864
-19.4989	0.00110245
-18.9989	0.00110627
-18.4989	0.00110627
-17.9989	0.0011139
-17.4989	0.0011139
-16.999	0.00112534
-16.4994	0.00112916
-15.9989	0.00112916
-15.4989	0.00113297
-14.9989	0.00113297
-14.499	0.00113679
-13.999	0.00113679
-13.499	0.0011406
-12.999	0.00114823
-12.499	0.00114823
-11.999	0.00114823
-11.4992	0.00115586
-10.9991	0.00115586
-10.499	0.00115968
-9.99899	0.00115968
-9.49899	0.00115968
-8.99899	0.00115968
-8.49899	0.00116349
-7.999	0.00117112
-7.499	0.00117875
-6.99902	0.00118256
-6.49902	0.00118638
-5.99902	0.00118638
-5.49902	0.00119401
-4.99902	0.00119782
-4.49903	0.00119782
-3.99903	0.00120545
-3.49904	0.00120164
-2.99904	0.00120927
-2.49905	0.00120545
-1.99905	0.00120927
-1.49905	0.00121308
-0.999062	0.0012169
-0.499062	0.00122071
0.000938416	0.00122071
0.500931	0.00122071
1.00093	0.00122071
1.50091	0.00122834
2.00092	0.00123597
2.50092	0.00123978
3.00091	0.0012436
3.50067	0.0012436
4.00091	0.00124741
4.5009	0.00125123
5.0009	0.00125504
5.50089	0.00125504
6.00089	0.00125504
6.50088	0.00126267
7.00088	0.00126649
7.50088	0.0012703
8.00087	0.0012703
8.50087	0.00127412
9.00087	0.00127412
9.50086	0.00127793
10.0009	0.00127793
10.5008	0.00128556
11.0008	0.00128175
11.5008	0.00128938
12.0008	0.00128938
12.5008	0.00129319
13.0008	0.00129319
13.5008	0.00130082
14.0008	0.00130082
14.4997	0.00130463
15.0008	0.00130463
15.5008	0.00130463
16.0008	0.00130463
16.5008	0.00131608
17.0008	0.00131226
17.5008	0.00131226
18.0008	0.00131608
18.5008	0.00131608
19.0008	0.00131989
19.5008	0.00131989
20.0008	0.00132371
20.4997	0.00131989
20.9998	0.00132752
21.5008	0.00132752
21.9996	0.00132752
22.4987	0.00132371
22.9989	0.00132371
23.5007	0.00132371
24.0007	0.00132371
24.5007	0.00133515
25.0007	0.00133515
25.5007	0.00134278
26.0007	0.0013466
26.5007	0.00135041
27.0007	0.0013466
27.5007	0.00135041
28.0007	0.00135804
28.5007	0.00135804
29.0007	0.00136185
29.5007	0.00136567
30.0007	0.00136948
30.5007	0.0013733
31.0007	0.0013733
31.5007	0.0013733
32.0007	0.00137711
32.5007	0.00138093
33.0002	0.00138856
33.5007	0.00139237
34.0007	0.00139619
34.5007	0.00140382
35.0007	0.00140763
35.5007	0.00141145
36.0006	0.00141907
36.5006	0.0014267
37.0006	0.00143052
37.5006	0.00144196
38.0006	0.00144959
38.5006	0.00146104
39.0006	0.00146867
39.5006	0.00148011
40.0006	0.00148392
40.5006	0.00149918
41.0006	0.00150681
41.5006	0.00152207
42.0006	0.0015297
42.5006	0.00153733
43.0006	0.00154877
43.5006	0.00156403
44.0006	0.00158311
44.5006	0.00160599
45.0006	0.0016327
45.5006	0.00165177
46.0006	0.00167084
46.5006	0.00170136
47.0006	0.00172425
47.5006	0.00175095
48.0006	0.00178147
48.5006	0.00181962
49.0005	0.00185014
49.5005	0.0018921
50.0005	0.00192643
50.5005	0.0019684
51.0005	0.00201036
51.5005	0.00206377
52.0005	0.00213243
52.5005	0.0022011
53.0005	0.00226976
53.5005	0.00232317
54.0005	0.00237657
54.5005	0.00242998
55.0005	0.00249864
55.5005	0.00255205
56.0005	0.00261308
56.5005	0.00268556
57.0005	0.00276949
57.5005	0.00286485
58.0005	0.00294496
58.5005	0.00304414
59.0005	0.0031357
59.5005	0.00322343
60.0005	0.00332643
60.5005	0.0034218
61.0005	0.00351335
61.5005	0.00364687
62.0005	0.00377275
62.5005	0.00386812
62.9998	0.0039635
63.5004	0.00409701
64.0004	0.0041962
64.5004	0.00426868
65.0004	0.00437167
65.5004	0.00448611
66.0004	0.00465396
66.5004	0.00478366
67.0004	0.00488666
67.5004	0.00502399
68.0004	0.00521854
68.5004	0.0053902
69.0004	0.00556949
69.5004	0.00572589
70.0004	0.00591281
70.4994	0.0060921
70.9994	0.0062218
71.4994	0.0063782
72.0004	0.0065079
72.5004	0.00655749
73.0004	0.00667194
73.5004	0.00673297
74.0004	0.0067673
74.5004	0.00675967
75.0004	0.00664905
75.5003	0.00655749
76.0003	0.00646976
76.5003	0.00624087
77.0003	0.00605395
77.5003	0.00582507
78.0003	0.00562289
78.5001	0.0053902
79.0003	0.00518802
79.5003	0.00501636
80.0003	0.00479129
80.5003	0.00450519
81.0003	0.00424579
81.5003	0.00405887
82.0003	0.00380327
82.5003	0.00354005
83.0003	0.00327303
83.5003	0.00308992
84.0003	0.00284196
84.5003	0.00244905
85.0003	0.00195314
85.5003	0.00145341
86.0003	0.000949863
86.5003	0.00054932
87.0003	0.000240327
87.5003	5.72E-05
88.0002	3.05E-05
88.5002	2.29E-05
89.0002	2.29E-05
89.5002	2.29E-05
90.0002	2.29E-05
90.5002	2.29E-05
91.0002	2.29E-05
91.5002	2.29E-05
92.0002	2.29E-05
92.5002	2.29E-05
93.0002	2.29E-05
93.5002	2.29E-05
94.0002	2.67E-05
94.5002	2.67E-05
95.0002	3.05E-05
95.5002	4.58E-05
96.0002	6.10E-05
96.5002	8.77E-05
97.0002	0.000122071
97.5002	0.000152589
98.0002	0.000171662
98.5002	0.000186921
99.0002	0.00019455
99.5002	0.00019455
100	0.000198365
100.5	0.000198365
101	0.000213624
101.5	0.000236512
102	0.000244142
102.5	0.000259401
103	0.000267031
103.5	0.000282289
104	0.000289919
104.5	0.000301363
105	0.000316622
105.5	0.000343325
106	0.000366213
106.5	0.00039673
107	0.000442507
107.498	0.000480654
108	0.000530247
108.499	0.000576023
109	0.000587467
109.5	0.000553135
110	0.000484468
110.5	0.000408174
111	0.000305178
111.5	0.000205995
112	0.000102997
112.5	3.05E-05
113	3.81E-05
113.5	3.81E-05
114	4.20E-05
114.5	4.20E-05
115	4.96E-05
115.5	4.58E-05
116	4.96E-05
116.5	4.96E-05
117	4.96E-05
117.5	5.34E-05
118	5.34E-05
118.5	5.34E-05
119	5.72E-05
119.5	5.34E-05
120	5.72E-05
120	5.72E-05
-63.9987	0.00186539
-63.4987	0.00171281
-62.9987	0.00158311
-62.4987	0.00146485
-61.9987	0.0013466
-61.4987	0.00123597
-60.9987	0.00113297
-60.4987	0.00104142
-59.9987	0.000961307
-59.4987	0.000877384
-58.9987	0.000816349
-58.4987	0.000755314
-57.9987	0.000705723
-57.4987	0.000656132
-56.9987	0.000610355
-56.4987	0.000572208
-55.9989	0.000530247
-55.4988	0.000499729
-54.9989	0.00046921
-54.4992	0.000438692
-53.9991	0.000408174
-53.4988	0.000385286
-52.9988	0.000366213
-52.4988	0.000347139
-51.9988	0.000331881
-51.4988	0.000316622
-50.9988	0.000301363
-50.4988	0.000286104
-49.9988	0.00027466
-49.4988	0.000263216
-48.9988	0.000255587
-48.4988	0.000244142
-47.9988	0.000236512
-47.4988	0.000225068
-46.9988	0.000225068
-46.4993	0.000213624
-45.9988	0.000209809
-45.4988	0.00020218
-44.9988	0.00019455
-44.4988	0.000190736
-43.9988	0.000183106
-43.4988	0.000183106
-42.9988	0.000179292
-42.4989	0.000175477
-41.9989	0.000175477
-41.4989	0.000167848
-40.9989	0.000164033
-40.4989	0.000164033
-39.9989	0.000167848
-39.4989	0.000160218
-38.9989	0.000156404
-38.4989	0.000152589
-37.9989	0.000152589
-37.4989	0.000152589
-36.9989	0.000148774
-36.4989	0.000144959
-35.9989	0.000144959
-35.4989	0.000141145
-34.9989	0.000141145
-34.4989	0.000141145
-33.9989	0.000141145
-33.4989	0.00013733
-32.9989	0.00013733
-32.4989	0.00013733
-31.9989	0.000133515
-31.4989	0.00013733
-30.9989	0.000129701
-30.4989	0.000129701
-29.9989	0.000129701
-29.499	0.000129701
-28.999	0.000133515
-28.499	0.000129701
-27.999	0.000133515
-27.499	0.000129701
-26.999	0.000129701
-26.499	0.000129701
-25.999	0.000129701
-25.499	0.000125886
-24.999	0.000129701
-24.499	0.000122071
-23.999	0.000125886
-23.499	0.000122071
-22.999	0.000129701
-22.499	0.000129701
-21.999	0.000129701
-21.499	0.000129701
-20.999	0.000125886
-20.499	0.000125886
-19.999	0.000125886
-19.499	0.000129701
-18.999	0.000125886
-18.499	0.000125886
-17.999	0.000125886
-17.4991	0.000125886
-16.9991	0.000125886
-16.4991	0.000122071
-15.9991	0.000129701
-15.4991	0.000129701
-14.9991	0.000125886
-14.4991	0.000129701
-13.9991	0.000129701
-13.4991	0.000125886
-12.9991	0.000129701
-12.4991	0.000129701
-11.9991	0.000129701
-11.4991	0.000125886
-10.9995	0.000122071
-10.4991	0.000125886
-9.9991	0.000129701
-9.49911	0.000129701
-8.99911	0.000125886
-8.49912	0.000129701
-7.99912	0.000125886
-7.49912	0.000129701
-6.99913	0.000129701
-6.49913	0.000129701
-5.99913	0.000129701
-5.49914	0.000129701
-4.99915	0.000129701
-4.49915	0.000129701
-3.99915	0.000129701
-3.49915	0.000133515
-2.99916	0.000129701
-2.49916	0.000129701
-1.99916	0.000129701
-1.49917	0.000129701
-0.999176	0.000133515
-0.499184	0.000129701
0.000816345	0.000129701
0.500809	0.000129701
1.00081	0.000133515
1.50081	0.000133515
2.0008	0.000133515
2.5008	0.000133515
3.00079	0.000133515
3.50079	0.00013733
4.00079	0.00013733
4.50078	0.00013733
5.0003	0.00013733
5.50078	0.00013733
6.00077	0.000141145
6.50077	0.00013733
7.00077	0.000144959
7.50076	0.000141145
8.00076	0.000141145
8.50075	0.000141145
9.00075	0.00013733
9.50075	0.000141145
10.0007	0.000141145
10.5007	0.00013733
11.0007	0.000144959
11.5007	0.000144959
12.0007	0.000144959
12.5007	0.000144959
13.0007	0.000148774
13.5007	0.000144959
14.0007	0.000144959
14.5007	0.000144959
15.0007	0.000144959
15.5007	0.000152589
16.0007	0.000152589
16.5007	0.000148774
17.0007	0.000152589
17.5007	0.000152589
18.0007	0.000152589
18.5007	0.000156404
19.0007	0.000156404
19.5007	0.000156404
20.0007	0.000156404
20.5007	0.000156404
21.0006	0.000156404
21.5006	0.000160218
22.0006	0.000160218
22.5006	0.000164033
23.0006	0.000167848
23.4986	0.000171662
24.0006	0.000171662
24.5006	0.000179292
25.0006	0.000179292
25.5006	0.000183106
26.0006	0.000183106
26.5006	0.000186921
27.0006	0.000190736
27.5006	0.00019455
28.0006	0.00019455
28.5006	0.000198365
29.0006	0.000205995
29.5006	0.000205995
30.0006	0.000209809
30.5006	0.000209809
31.0006	0.000217439
31.5006	0.000228883
32.0006	0.000232697
32.5006	0.000240327
33.0006	0.000244142
33.5006	0.000251772
34.0005	0.000259401
34.5005	0.000263216
35.0005	0.00027466
35.5005	0.000282289
36.0005	0.000289919
36.5005	0.000301363
37.0005	0.000308992
37.5005	0.000320436
38.0005	0.000335695
38.5005	0.000350954
39.0005	0.000362398
39.5005	0.000377657
40.0005	0.000392916
40.5005	0.000415804
41.0005	0.000434877
41.5005	0.000453951
42.0005	0.000480654
42.4996	0.000507358
43.0005	0.000534061
43.5005	0.000576023
44.0005	0.000606541
44.5005	0.000640873
45.0005	0.000682835
45.5005	0.000728611
46.0005	0.000770573
46.5005	0.000823978
47.0005	0.000873569
47.5005	0.000942234
48.0004	0.00101853
48.5004	0.00110627
49.0004	0.00120545
49.5004	0.00131226
50.0004	0.0014267
50.5004	0.00157166
51.0004	0.00173569
51.5004	0.00191117
52.0004	0.00212099
52.5004	0.00237276
53.0004	0.00266649
53.5004	0.0030594
54.0004	0.00349428
54.5004	0.00401309
55.0004	0.00458911
55.5004	0.00527194
56.0004	0.00609973
56.5004	0.00704959
57.0004	0.00816351
57.5004	0.00946051
58.0004	0.0110093
58.4988	0.0127335
59.0004	0.0148087
59.5004	0.0170823
60.0004	0.0194284
60.5003	0.0217706
61.0003	0.0244294
61.5003	0.0274163
62.0003	0.0304567
62.5003	0.0332148
63.0003	0.036072
63.5003	0.0389254
64.0003	0.0421603
64.5003	0.0454447
65.0003	0.0487063
65.5003	0.0513041
66.0003	0.053818
66.5003	0.0561373
67.0003	0.0586779
67.5003	0.0606463
68.0003	0.0626302
68.5003	0.0644727
69.0003	0.0654225
69.5003	0.0668111
70.0003	0.0673108
70.5003	0.0677876
71.0003	0.0682111
71.5003	0.0688024
72.0003	0.0692105
72.5003	0.0699544
73.0002	0.0700574
73.5002	0.0710073
74.0002	0.070786
74.5002	0.0705304
75.0002	0.0696988
75.5002	0.0690999
76.0002	0.0676274
76.5002	0.0658002
77.0002	0.0642972
77.5002	0.0623744
78.0002	0.0603068
78.5002	0.0580714
79.0002	0.0557673
79.5002	0.0541613
80.0002	0.0519145
80.5002	0.0492518
81.0002	0.0465968
81.5002	0.0444262
82.0002	0.042145
82.5002	0.0402758
83.0002	0.0375521
83.5002	0.0338519
84.0002	0.0293351
84.5002	0.0237504
85.0002	0.0181924
85.5002	0.0126877
86.0001	0.00768283
86.5001	0.00363542
87.0001	0.00128938
87.5001	0.000774387
88.0001	0.000667576
88.5001	0.000625614
89.0001	0.000606541
89.5001	0.000595096
90.0001	0.000587467
90.5001	0.000579838
91.0001	0.000579838
91.5001	0.000591282
92.0001	0.000610355
92.5001	0.000633243
93.0001	0.000675205
93.5001	0.000713352
94.0001	0.000762943
94.5001	0.000823978
94.9995	0.000896458
95.5001	0.000988014
96.0001	0.00107957
96.5001	0.00120927
97.0001	0.00133897
97.5001	0.00149537
98.0001	0.00160981
98.5001	0.00160218
99	0.00144196
99.5	0.00123978
100	0.000999458
100.5	0.000740055
101	0.00046921
101.5	0.000221253
102	7.63E-05
102.5	4.20E-05
103	3.43E-05
103.5	3.43E-05
104	3.05E-05
104.5	3.81E-05
105	4.20E-05
105	4.20E-05
