Photodiode Viewing Angle (Degrees) - Plot 0	Lock-in Signal Amplitude (V) - Plot 0
-18.9987	0.00263311
-18.4987	0.00255682
-17.9987	0.00247766
-17.4987	0.00241376
-16.9987	0.00235845
-16.4987	0.00230791
-15.9987	0.00225832
-15.4987	0.00221826
-14.9987	0.00217535
-14.4987	0.00214578
-13.9987	0.00211908
-13.4987	0.0020857
-12.9987	0.00206186
-12.4987	0.0020342
-11.9987	0.00201704
-11.4987	0.00199701
-10.9987	0.00197889
-10.4987	0.00195695
-9.99876	0.0019436
-9.49876	0.00192261
-8.99876	0.00191117
-8.49876	0.00189973
-7.99876	0.00188733
-7.49878	0.00188065
-6.99878	0.0018797
-6.49878	0.00187112
-5.99879	0.00185967
-5.50081	0.001853
-4.99879	0.00183774
-4.49879	0.00182915
-3.99879	0.00182439
-3.49881	0.00181485
-2.99881	0.0018158
-2.49881	0.00181294
-1.99883	0.00180913
-1.49883	0.00180245
-0.998825	0.00179578
-0.498825	0.00179482
0.00117493	0.00178624
0.50116	0.00178147
1.00116	0.00178529
1.50116	0.00178147
2.00116	0.0017767
2.50114	0.0017767
3.00114	0.00177003
3.50114	0.00176049
4.00113	0.00176049
4.50113	0.00175286
5.00113	0.00174809
5.50113	0.00174714
6.00113	0.00174809
6.50111	0.00173951
7.00111	0.00173856
7.50111	0.00173093
8.0011	0.00172902
8.5011	0.00172139
9.0011	0.00171948
9.5011	0.00171948
10.0011	0.00171281
10.5007	0.00170613
11.0011	0.00170518
11.5011	0.00170327
12.0011	0.00169755
12.5011	0.00169946
13.0011	0.00169564
13.5011	0.00169183
14.0011	0.00168134
14.5011	0.00167561
15.0011	0.00167275
15.501	0.00167275
16.001	0.00166608
16.501	0.00165749
17.001	0.00165368
17.501	0.0016451
18.001	0.00163651
18.501	0.00163174
19.001	0.0016203
19.501	0.00161649
20.001	0.00161362
20.501	0.00160981
21.001	0.00159741
21.501	0.00159455
22.001	0.00159169
22.501	0.0015812
23.001	0.00158311
23.501	0.0015812
24.001	0.00157738
24.501	0.00156594
25.001	0.0015564
25.501	0.00154401
26.001	0.00153733
26.501	0.00152779
27.001	0.00151921
27.5009	0.00151635
28.0009	0.00150967
28.5009	0.001503
29.0009	0.00150014
29.5009	0.00148774
30.0009	0.0014763
30.5009	0.00147153
31.0009	0.00146008
31.5009	0.00144673
32.0009	0.0014391
32.5009	0.00143433
33.0009	0.00143052
33.5009	0.00142194
34.0009	0.00141335
34.5009	0.00140096
35.0009	0.00139142
35.5009	0.00137997
36.0009	0.00137044
36.5009	0.0013609
37.0009	0.00135518
37.5009	0.00135041
38.0009	0.00133324
38.5009	0.0013218
39.0009	0.00131036
39.5009	0.00130082
40.0009	0.00128842
40.5008	0.00127602
41.0008	0.00126553
41.5008	0.00125504
42.0008	0.00124551
42.5008	0.00123978
43.0008	0.00122643
43.5008	0.00121785
44.0008	0.00120354
44.5008	0.00118829
45.0008	0.0011778
45.5008	0.00116444
46.0008	0.001153
46.5008	0.00114442
47.0008	0.00113107
47.5008	0.00111104
48.0008	0.00110627
48.5008	0.00109196
49.0008	0.00107384
49.5008	0.00106335
50.0008	0.00104523
50.5008	0.00103284
51.0008	0.00102235
51.5008	0.00100613
52.0008	0.000990875
52.5008	0.000977524
53.0008	0.000963215
53.5007	0.000949863
54.0007	0.000934605
54.5007	0.000926975
55.0007	0.000914577
55.5007	0.000901226
56.0007	0.000886921
56.5007	0.000871662
57.0007	0.00085545
57.5007	0.000841144
58.0007	0.000832561
58.5007	0.00081921
59.0007	0.000804905
59.5007	0.000789646
60.0007	0.000777248
60.5007	0.000760082
61.0007	0.00074387
61.5007	0.000723843
62.0007	0.000705723
62.5007	0.000688557
63.0007	0.000675205
63.5007	0.000657085
64.0007	0.000645641
64.5007	0.000630382
65.0007	0.00061417
65.5007	0.000597958
66.0006	0.000581745
66.5006	0.000562672
67.0006	0.000547413
67.5006	0.000527386
68.0006	0.000514034
68.5006	0.000500683
68.9992	0.000487329
69.4987	0.000473024
69.9985	0.000452997
70.5006	0.000441553
71.0006	0.000426294
71.5006	0.000411989
72.0006	0.000394823
72.5006	0.000378611
73.0006	0.000361444
73.5006	0.000347139
74.0006	0.000332834
74.5006	0.000317575
75.0006	0.000308992
75.5006	0.00029278
76.0006	0.000276567
76.5006	0.000260355
77.0006	0.000241281
77.5006	0.00023079
78.0002	0.000216485
78.5006	0.000205041
79.0005	0.000189782
79.5005	0.000176431
80.0005	0.00016594
80.5005	0.000149728
81.0005	0.000136376
81.5005	0.00012684
82.0005	0.000110627
82.5005	9.82E-05
83.0005	8.77E-05
83.5005	7.06E-05
84.0005	5.34E-05
84.5005	4.20E-05
85.0005	3.91E-05
85.5005	4.58E-05
86.0004	5.53E-05
86.5005	6.39E-05
86.9999	7.06E-05
87.4996	6.87E-05
88.0005	6.77E-05
88.5005	6.58E-05
89.0005	6.58E-05
89.5005	6.58E-05
90.0005	6.77E-05
90.5005	6.49E-05
91.0005	6.39E-05
91.5005	6.49E-05
92.0005	6.39E-05
92.5003	5.91E-05
93.0004	6.01E-05
93.5004	6.01E-05
94.0004	6.10E-05
94.5004	5.82E-05
95.0004	6.01E-05
95.5004	6.01E-05
96.0004	5.91E-05
96.5004	5.53E-05
97.0004	5.53E-05
97.5004	5.91E-05
98.0004	5.72E-05
98.5004	5.63E-05
99.0004	5.53E-05
99.5004	5.53E-05
100	5.44E-05
100.5	5.15E-05
101	4.96E-05
101.5	4.77E-05
102	4.58E-05
102.499	4.67E-05
103	4.39E-05
103.499	4.10E-05
104	3.43E-05
104.5	3.34E-05
105	3.05E-05
105.5	2.86E-05
106	3.05E-05
106.5	2.57E-05
107	2.29E-05
107.5	2.38E-05
108	2.19E-05
108.5	1.91E-05
109	1.81E-05
109.5	2.19E-05
110	1.72E-05
110.5	1.43E-05
111	1.43E-05
111.5	1.53E-05
112	1.53E-05
112.5	1.53E-05
113	1.53E-05
113.5	1.62E-05
114	1.81E-05
114.5	2.38E-05
115	3.53E-05
115.5	4.58E-05
116	5.53E-05
116.5	7.06E-05
117	7.82E-05
117.5	8.39E-05
118	8.77E-05
118.5	8.77E-05
119	9.25E-05
119.5	9.73E-05
120	9.73E-05
120.5	0.000105858
121	0.000110627
121.5	0.000116349
122	0.000123025
122.5	0.000136376
123	0.000144006
123.5	0.000152589
124	0.000164033
124.5	0.000177384
125	0.000185014
125.5	0.00019455
126	0.000199319
126.5	0.000205995
127	0.0002203
127.5	0.000224114
128	0.000219346
128.5	0.000207902
129	0.000181199
129.5	0.000161172
130	0.00013733
130.5	0.000110627
131	9.16E-05
131.5	8.20E-05
132	8.20E-05
132.5	7.92E-05
133	7.44E-05
133.5	6.20E-05
134	5.63E-05
134.5	4.86E-05
135	4.39E-05
135.5	4.29E-05
136	4.39E-05
136.5	4.39E-05
137	4.77E-05
137.5	4.39E-05
138	4.58E-05
138.5	4.67E-05
139	5.05E-05
139.5	4.77E-05
140	5.15E-05
140.5	5.53E-05
141	5.44E-05
141.5	6.49E-05
142	6.77E-05
142.5	7.06E-05
143	6.96E-05
143.5	6.68E-05
144	5.53E-05
144.5	5.25E-05
145	4.67E-05
145.5	4.58E-05
146	4.39E-05
146.5	4.20E-05
147	4.29E-05
147.5	4.10E-05
148	4.29E-05
148.5	4.58E-05
149	4.20E-05
149.5	4.39E-05
150	4.01E-05
150	4.20E-05
-33.9987	0.00230314
-33.4987	0.0022278
-32.9987	0.00215532
-32.4987	0.00209238
-31.9987	0.00204183
-31.4987	0.00199033
-30.9987	0.00194836
-30.4987	0.00190831
-29.9987	0.00187398
-29.4987	0.00184823
-28.9987	0.00182057
-28.4987	0.00179864
-27.9987	0.00177098
-27.4987	0.00175763
-26.9987	0.00173856
-26.4987	0.0017252
-25.9987	0.00170995
-25.4987	0.00169183
-24.9988	0.00168229
-24.4988	0.00166512
-23.9988	0.00165559
-23.4988	0.00165177
-22.9988	0.00163937
-22.4988	0.0016451
-21.9988	0.00164128
-21.4988	0.00163747
-20.9988	0.00163174
-20.4988	0.00162698
-19.9988	0.00162316
-19.4988	0.00161172
-18.9988	0.00161172
-18.4988	0.00160981
-17.9988	0.00161362
-17.4988	0.00161553
-16.9988	0.00161172
-16.4988	0.00161267
-15.9988	0.00161362
-15.4988	0.00161076
-14.9988	0.00161267
-14.4988	0.00161362
-13.9988	0.00161458
-13.4988	0.00161744
-12.9988	0.00161935
-12.4989	0.00161649
-11.9989	0.00161839
-11.4989	0.00161362
-10.9989	0.00161267
-10.4989	0.00161458
-9.99887	0.00161172
-9.49887	0.00161362
-8.99887	0.00161267
-8.49889	0.00161744
-7.99889	0.00161553
-7.49889	0.00161649
-6.9989	0.00161362
-6.4989	0.00161935
-5.9989	0.00162125
-5.4989	0.00162316
-4.9989	0.00162125
-4.49892	0.0016203
-3.99892	0.00161839
-3.49893	0.00162316
-2.99893	0.00162507
-2.49893	0.00162698
-1.99911	0.00162984
-1.49896	0.00162698
-0.999329	0.00162793
-0.498947	0.00162793
0.00105286	0.00162507
0.501038	0.00163079
1.00104	0.00162698
1.50104	0.00162698
2.00104	0.00162698
2.50104	0.0016203
3.00104	0.00161649
3.50102	0.00161458
4.00102	0.0016203
4.50101	0.00161839
5.00101	0.00161362
5.50101	0.00161649
6.00101	0.00161076
6.50101	0.00161267
7.001	0.00161267
7.501	0.0016079
8.00098	0.00161649
8.50098	0.00161553
9.00098	0.00161362
9.50098	0.00160981
10.001	0.00160409
10.501	0.00159932
11.001	0.0015955
11.501	0.00159169
12.001	0.00159169
12.5009	0.00159455
13.0009	0.00159646
13.5009	0.0015955
14.0009	0.0015936
14.5009	0.00158978
15.0009	0.00158501
15.5009	0.00157929
16.0009	0.00157357
16.5009	0.00157357
17.0009	0.00157452
17.5009	0.00157643
18.0009	0.00157452
18.5009	0.00157166
19.0009	0.00156499
19.5009	0.00155831
20.0009	0.0015564
20.5009	0.00155354
21.0009	0.00155164
21.5009	0.00154687
22.0009	0.00154877
22.5009	0.00154305
23.0009	0.00154305
23.5009	0.00153447
24.0009	0.00153256
24.5009	0.00152112
25.0009	0.00151921
25.5005	0.00151826
26.0008	0.00151253
26.5008	0.00151444
27.0008	0.00150491
27.5008	0.00150491
28.0008	0.00150109
28.5008	0.00149728
29.0008	0.0014906
29.5008	0.00148869
30.0008	0.00147916
30.5008	0.00147248
31.0008	0.00147057
31.5008	0.0014639
32.0008	0.00145913
32.5008	0.00145436
33.0008	0.00144578
33.5008	0.00144006
34.0008	0.00143243
34.5008	0.00143052
35.0008	0.00142003
35.5001	0.00141526
35.9994	0.00140858
36.4998	0.00139809
37.0008	0.00138856
37.5008	0.00137902
38.0008	0.00137234
38.5007	0.00137044
39.0007	0.00137044
39.5007	0.00136281
40.0007	0.00135899
40.5007	0.00134946
41.0007	0.00134373
41.5007	0.00133706
42.0007	0.00132752
42.5007	0.00132561
43.0007	0.00131226
43.5007	0.00130749
44.0007	0.00129987
44.5007	0.00128747
45.0007	0.00127984
45.5007	0.00127221
46.0007	0.001256
46.5007	0.00123978
47.0007	0.00122929
47.5006	0.00121785
48.0007	0.0012045
48.5007	0.00119496
49.0007	0.00118447
49.5007	0.00117303
50.0007	0.00116254
50.5007	0.00114537
51.0006	0.00113107
51.5006	0.00111771
52.0006	0.00110341
52.5006	0.00109101
53.0006	0.00108243
53.4999	0.00107194
54.0006	0.0010624
54.5006	0.00104714
55.0006	0.00103379
55.5006	0.00102235
56.0006	0.00100613
56.5006	0.000990875
57.0006	0.000974659
57.5006	0.000958446
58.0006	0.000944141
58.5006	0.00093079
59.0006	0.000925068
59.5006	0.000911716
60.0006	0.000897411
60.5006	0.000886921
61.0006	0.000871662
61.5006	0.000856403
62.0006	0.000843052
62.5006	0.000825886
63.0003	0.000821117
63.5	0.000805859
64.0005	0.000791553
64.5005	0.000770573
65.0005	0.000755314
65.5005	0.000741009
66.0005	0.000728611
66.5005	0.000714306
67.0005	0.000700001
67.5005	0.000690464
68.0005	0.000673298
68.5005	0.000659946
69.0005	0.000643734
69.5005	0.000629429
70.0005	0.000613216
70.5005	0.000597004
71.0005	0.000581745
71.5005	0.000574116
72.0005	0.000557903
72.5002	0.000541691
73.0004	0.000524525
73.4997	0.000511173
74.0005	0.000499729
74.5005	0.000482561
75.0005	0.000465395
75.5005	0.000447275
76.0005	0.000433924
76.5005	0.00041485
77.0005	0.000395777
77.5005	0.000378611
78.0004	0.000369074
78.5004	0.000351908
79.0004	0.000335695
79.5004	0.000314714
80.0004	0.000297548
80.5004	0.000281336
81.0004	0.00026417
81.5004	0.000239373
82.0004	0.000227929
82.5004	0.000208856
83.0004	0.000190736
83.5004	0.000169755
84.0004	0.000148774
84.5004	0.000117302
85.0004	8.58E-05
85.5004	5.63E-05
86.0004	3.05E-05
86.4991	2.67E-05
87.0004	4.10E-05
87.5004	4.39E-05
88.0004	4.48E-05
88.5004	4.10E-05
89.0004	3.72E-05
89.5004	4.10E-05
90.0004	3.91E-05
90.5003	3.53E-05
91.0003	3.72E-05
91.5003	3.53E-05
92.0003	3.24E-05
92.5003	3.24E-05
93.0003	2.57E-05
93.5003	3.05E-05
94.0003	2.57E-05
94.5003	3.05E-05
95.0003	2.77E-05
95.5003	2.77E-05
96.0003	2.57E-05
96.5003	2.77E-05
97.0003	2.57E-05
97.5003	2.19E-05
98.0003	1.91E-05
98.5002	2.10E-05
99.0003	1.81E-05
99.5003	1.24E-05
100	1.62E-05
100.5	2.57E-05
101	3.72E-05
101.5	4.58E-05
102	5.34E-05
102.5	6.10E-05
103	6.29E-05
103.5	6.49E-05
104	6.39E-05
104.5	6.77E-05
105	7.25E-05
105.5	8.20E-05
106	8.49E-05
106.5	9.44E-05
106.999	0.00010109
107.5	0.000110627
108	0.000115395
108.5	0.000129701
109	0.000136376
109.5	0.000145913
110	0.000158311
110.5	0.000168801
111	0.000176431
111.5	0.000188828
112	0.000197412
112.5	0.000210763
113	0.0002203
113.5	0.000234605
114	0.000254633
114.5	0.000273706
115	0.000297548
115.5	0.000317575
116	0.000344278
116.5	0.000369074
117	0.000387194
117.5	0.000388147
118	0.000354769
118.5	0.000300409
119	0.000245096
119.5	0.000181199
120	0.000125886
120.5	7.44E-05
121	4.39E-05
121.5	3.81E-05
122	3.34E-05
122.5	3.34E-05
123	3.91E-05
123.5	3.81E-05
124	3.91E-05
124.5	4.20E-05
125	4.86E-05
125.5	5.15E-05
126	5.72E-05
126.5	6.10E-05
127	5.91E-05
127.5	5.53E-05
128	5.15E-05
128.5	4.20E-05
129	3.62E-05
129.5	3.43E-05
130	3.05E-05
130.5	3.05E-05
131	3.15E-05
131.5	3.34E-05
132	3.24E-05
132.5	3.24E-05
133	3.43E-05
133.5	3.34E-05
134	3.53E-05
134.5	3.72E-05
135	3.62E-05
135	3.43E-05
-48.9987	0.00187302
-48.4987	0.0018015
-47.9987	0.00173188
-47.4987	0.00166894
-46.9987	0.00161649
-46.4987	0.00156785
-45.9987	0.00152684
-45.4987	0.00148965
-44.9987	0.00145245
-44.4987	0.00142575
-43.9987	0.00140763
-43.4987	0.00138093
-42.9987	0.00136185
-42.4987	0.0013485
-41.9987	0.00132371
-41.4987	0.00131226
-40.9987	0.00130273
-40.4987	0.00128842
-39.9988	0.00127316
-39.4988	0.00126267
-38.9988	0.00125218
-38.4988	0.00125218
-37.9988	0.00124837
-37.4988	0.00124455
-36.9988	0.00124265
-36.4988	0.00123883
-35.9988	0.00123978
-35.4988	0.0012312
-34.9988	0.0012312
-34.4988	0.00123215
-33.9988	0.00123025
-33.4988	0.00123311
-32.9988	0.00123883
-32.4988	0.00124074
-31.9988	0.00124265
-31.4988	0.00124455
-30.9988	0.00124646
-30.4988	0.00124837
-29.9988	0.00125123
-29.4991	0.00125314
-28.9989	0.00125981
-28.4988	0.00126172
-27.9988	0.00126649
-27.4989	0.00126839
-26.9989	0.00127316
-26.4989	0.00127126
-25.9989	0.00127698
-25.4989	0.00127793
-24.9989	0.00128079
-24.4989	0.00128461
-23.9989	0.00128842
-23.4989	0.00128842
-22.9989	0.0012951
-22.4989	0.00130082
-21.9993	0.00130368
-21.4989	0.0013094
-20.9989	0.00131036
-20.4989	0.00131703
-19.9989	0.00131989
-19.4989	0.0013218
-18.9989	0.00132848
-18.4989	0.00133038
-17.9989	0.00133706
-17.4989	0.00133706
-16.9989	0.00134755
-16.4989	0.00134755
-15.9989	0.00135041
-15.4989	0.00135518
-14.9989	0.00135899
-14.499	0.00135995
-13.999	0.00136853
-13.499	0.00136948
-12.999	0.00137044
-12.4997	0.00137139
-11.999	0.00137044
-11.499	0.0013733
-10.999	0.00137234
-10.499	0.00137807
-9.99899	0.00137902
-9.49899	0.00138379
-8.99899	0.00138856
-8.49899	0.0013876
-7.999	0.00139523
-7.499	0.00139905
-6.99902	0.00140763
-6.49909	0.00140572
-5.99902	0.00141049
-5.49902	0.00140763
-4.99902	0.00141049
-4.49931	0.0014124
-3.99949	0.00140954
-3.49904	0.00141431
-2.99904	0.00141907
-2.49905	0.00141907
-1.99905	0.00142384
-1.49905	0.00143147
-0.999062	0.00142766
-0.499062	0.00143624
0.000938416	0.00143433
0.500931	0.00143052
1.00093	0.00143052
1.50086	0.00143719
2.00092	0.0014391
2.50086	0.00144578
3.00091	0.00144864
3.50091	0.00145055
4.00091	0.0014515
4.5009	0.00144959
5.0009	0.00145436
5.50089	0.00145341
6.00089	0.00145627
6.50088	0.00145722
7.00088	0.0014639
7.50088	0.0014639
8.00087	0.00146676
8.50087	0.00146294
9.00087	0.0014658
9.50086	0.00146771
10.0009	0.0014639
10.5008	0.00146867
11.0008	0.00146676
11.5008	0.00146771
12.0008	0.00147439
12.5008	0.00147439
13.0008	0.00147534
13.5008	0.0014763
14.0008	0.00147534
14.5008	0.00147248
15.0008	0.0014763
15.5008	0.00146962
16.0008	0.00147439
16.5008	0.0014782
17.0008	0.00147343
17.5008	0.00146771
18.0008	0.00147057
18.5008	0.00146771
19.0008	0.00146294
19.5008	0.00146104
20.0008	0.00145818
20.5008	0.00145436
21.0008	0.00145245
21.5008	0.00145055
22.0008	0.00144959
22.5008	0.00144196
23.0008	0.00144387
23.5007	0.0014391
24.0007	0.00144292
24.5007	0.00144482
25.0007	0.0014391
25.5007	0.00144101
26.0007	0.00144196
26.5007	0.00143719
27.0007	0.00144101
27.5007	0.00143433
28.0007	0.00143719
28.5007	0.00143433
29.0007	0.00143243
29.5007	0.00143052
30.0007	0.00142861
30.5007	0.0014248
31.0007	0.00141431
31.5007	0.00141049
32.0007	0.00140191
32.5007	0.00139523
33.0007	0.00139619
33.5007	0.0013876
34.0007	0.00138665
34.5007	0.00138093
35.0007	0.00138284
35.4995	0.00137425
36.0006	0.00136948
36.4994	0.00136567
36.9992	0.00135899
37.4995	0.00135709
38.0006	0.00135518
38.5006	0.00135136
39.0006	0.0013485
39.5006	0.0013466
40.0006	0.00134564
40.5006	0.00133992
41.0006	0.00133038
41.5006	0.00133038
42.0006	0.0013218
42.5006	0.00131989
43.0006	0.00131703
43.5006	0.00131703
44.0006	0.00131322
44.5006	0.00131703
45.0006	0.00131703
45.5006	0.00131322
46.0006	0.00131036
46.5006	0.00130845
47.0006	0.00130845
47.5006	0.0013094
48.0006	0.0013094
48.5006	0.00131417
49.0004	0.00130654
49.5004	0.00130368
50.0005	0.00129987
50.5005	0.00130082
51.0005	0.00130368
51.5005	0.00130463
52.0005	0.00131226
52.5005	0.00131703
53.0005	0.00131512
53.5005	0.00131417
54.0005	0.00131322
54.5005	0.00131512
55.0005	0.00131322
55.5005	0.00131703
56.0005	0.00131703
56.5005	0.00132085
57.0005	0.0013218
57.5005	0.00131799
58.0004	0.00131512
58.5005	0.00132085
59.0005	0.0013218
59.5005	0.00132085
60.0005	0.00132275
60.5005	0.00131608
61.0005	0.00131322
61.5005	0.00130845
62.0005	0.00130559
62.5005	0.00130273
63.0004	0.001297
63.4984	0.00128842
64.0004	0.00127984
64.5004	0.0012703
65.0004	0.00126458
65.5004	0.00124646
66.0004	0.00122929
66.5004	0.00121308
67.0004	0.00119782
67.5004	0.00119592
68.0004	0.0011797
68.5004	0.00116158
69.0004	0.00115586
69.4999	0.00114537
70.0004	0.00112916
70.4993	0.00111485
70.999	0.00110245
71.4989	0.00108147
72.0004	0.0010624
72.4991	0.0010481
73.0004	0.00103188
73.5004	0.00101758
74.0004	0.000998504
74.5004	0.00097657
75.0004	0.000962261
75.5003	0.000945095
76.0003	0.000924114
76.5003	0.00089455
77.0003	0.000872616
77.5003	0.000845913
78.0003	0.000824932
78.5003	0.00080109
79.0003	0.000783924
79.5003	0.000757221
80.0003	0.000727657
80.5003	0.000700954
81.0003	0.000676159
81.5003	0.000644688
82.0003	0.000613216
82.5003	0.000573162
83.0003	0.000545505
83.5003	0.000517849
84.0003	0.000468256
84.5003	0.000399591
85.0003	0.000329973
85.5003	0.000248911
86.0003	0.000185967
86.5003	0.000125886
87.0003	8.77E-05
87.5003	7.15E-05
88.0002	7.06E-05
88.5002	6.77E-05
89.0002	6.96E-05
89.5002	7.25E-05
90.0002	7.53E-05
90.5002	8.20E-05
91.0002	8.49E-05
91.5002	9.25E-05
92.0002	0.00010109
92.5002	0.000104905
93.0002	0.000112534
93.5002	0.000124932
94.0002	0.000132562
94.5002	0.000141145
95.0002	0.000149728
95.5002	0.000161172
96.0002	0.00016594
96.5002	0.000174523
97.0002	0.000183106
97.5001	0.000199319
97.9999	0.00021267
98.5	0.000222207
99.0002	0.000237466
99.5002	0.000258448
100	0.000280382
100.5	0.000304224
101	0.000331881
101.5	0.000355722
102	0.000379564
102.5	0.00040436
103	0.000423433
103.5	0.000435831
104	0.000462534
104.5	0.000489239
105	0.000529293
105.5	0.000571255
106	0.000615124
106.5	0.000669483
107	0.000714306
107.5	0.000699047
108	0.000635151
108.5	0.000553135
109	0.000452043
109.5	0.000331881
110	0.000221253
110.5	0.000124932
111	6.77E-05
111.5	5.72E-05
112	5.82E-05
112.5	5.72E-05
113	4.96E-05
113.5	4.58E-05
114	3.91E-05
114.5	4.01E-05
115	4.01E-05
115.5	4.39E-05
116	4.01E-05
116.5	4.39E-05
117	4.48E-05
117.5	4.29E-05
118	4.67E-05
118.5	4.86E-05
119	4.58E-05
119.5	4.67E-05
120	4.58E-05
120	4.58E-05
-63.9987	0.00147343
-63.4987	0.00139905
-62.9987	0.00131989
-62.4987	0.0012579
-61.9987	0.0012045
-61.4987	0.00115109
-60.9987	0.00110913
-60.4987	0.00106908
-59.9987	0.00103284
-59.4987	0.00100613
-58.9987	0.000982292
-58.4989	0.000958446
-57.9987	0.000934605
-57.4987	0.000918392
-56.9987	0.000896458
-56.4987	0.000881199
-55.9987	0.000868801
-55.4987	0.000857357
-54.9988	0.000843052
-54.4988	0.000826839
-53.9988	0.000821117
-53.5007	0.000813488
-52.9988	0.000805859
-52.4988	0.00080109
-51.9988	0.000803951
-51.4988	0.00080109
-50.9988	0.000797275
-50.4988	0.000792507
-49.9988	0.0007906
-49.4988	0.000793461
-48.9988	0.0007906
-48.4988	0.000788692
-47.9988	0.000788692
-47.4988	0.000786785
-46.9988	0.000793461
-46.4988	0.000793461
-45.9988	0.0007906
-45.4988	0.000793461
-44.9988	0.000800136
-44.4988	0.000805859
-44.0004	0.000804905
-43.4988	0.000809673
-42.9988	0.000810627
-42.4989	0.000815395
-41.9989	0.000816349
-41.4989	0.000817303
-40.9989	0.000826839
-40.4989	0.000830654
-39.9989	0.000831608
-39.4989	0.000836376
-38.9989	0.000839237
-38.4989	0.000838283
-37.9989	0.000844005
-37.4989	0.000850681
-36.9989	0.000854496
-36.4989	0.000854496
-35.9989	0.000863079
-35.4989	0.000867847
-34.9989	0.000871662
-34.4989	0.000875477
-34.0007	0.000882152
-33.4989	0.000886921
-32.9989	0.00089455
-32.4989	0.000896458
-31.9989	0.000896458
-31.4989	0.000903133
-30.9989	0.000908855
-30.499	0.000909809
-29.999	0.000917438
-29.4991	0.00092316
-28.999	0.000924114
-28.499	0.000929836
-27.999	0.00093079
-27.499	0.000936512
-26.999	0.000936512
-26.499	0.00094128
-25.999	0.000946049
-25.499	0.000950817
-24.999	0.000953678
-24.499	0.000958446
-23.999	0.000958446
-23.499	0.000965122
-22.999	0.000967029
-22.499	0.000972752
-21.999	0.000979431
-21.499	0.000985153
-20.999	0.00098706
-20.499	0.000993736
-19.999	0.000993736
-19.499	0.00100041
-18.999	0.00100137
-18.499	0.00100899
-17.9993	0.00101376
-17.4991	0.00101281
-16.9991	0.00101853
-16.4991	0.0010233
-15.9991	0.00102711
-15.4991	0.00103093
-14.9991	0.00103188
-14.4991	0.00103856
-13.9991	0.00104237
-13.4991	0.00104237
-12.9991	0.00104905
-12.4991	0.00105
-11.9991	0.00105859
-11.4991	0.0010624
-10.9991	0.00106431
-10.4991	0.00106717
-9.9991	0.00107384
-9.49911	0.00107766
-8.99911	0.00107957
-8.49912	0.00108434
-7.99912	0.0010872
-7.49912	0.00109101
-6.99913	0.00109387
-6.49913	0.00109292
-5.99913	0.00110341
-5.49914	0.00110436
-4.99915	0.00110818
-4.49915	0.00111008
-3.99915	0.00111771
-3.49915	0.00112057
-2.99916	0.00112057
-2.49916	0.00112534
-1.99916	0.00113011
-1.49917	0.00113107
-0.999176	0.00113393
-0.499184	0.00113965
0.000244141	0.0011406
0.500809	0.00114251
1.00047	0.00114728
1.50081	0.00115014
2.0008	0.00115395
2.5008	0.00115395
3.00079	0.00116063
3.50079	0.00116254
4.00079	0.00116063
4.50078	0.00116254
5.00078	0.00116254
5.50078	0.00116349
6.00077	0.00116444
6.50077	0.00117303
7.00077	0.00117112
7.50076	0.00117017
8.00076	0.0011778
8.50075	0.0011797
9.00075	0.00118256
9.50075	0.00118638
10.0007	0.00118733
10.5007	0.00118638
11.0002	0.0011921
11.5003	0.00119592
12.0003	0.00119687
12.5004	0.00119973
12.9997	0.00120259
13.4998	0.0012045
14.0007	0.00120927
14.5007	0.00121022
15.0007	0.00121308
15.5007	0.00120736
16.0007	0.00120831
16.5007	0.00120641
17.0007	0.00121022
17.5007	0.00120545
18.0007	0.00120736
18.5007	0.00120831
19.0007	0.00121117
19.5007	0.00121117
20.0007	0.00120927
20.5007	0.00121022
21.0006	0.0012169
21.5006	0.00121785
22.0006	0.00121785
22.5006	0.00121976
23.0006	0.00122166
23.5006	0.00122166
24.0006	0.00121785
24.5006	0.00122357
25.0006	0.00122834
25.5006	0.00122357
26.0006	0.00122453
26.5006	0.00122357
27.0006	0.00122643
27.5006	0.00122739
28.0006	0.0012312
28.5005	0.00123311
29.0006	0.00123692
29.5006	0.00124074
30.0006	0.00124455
30.5006	0.00124837
31.0006	0.00125314
31.5006	0.00125504
32.0006	0.0012579
32.5006	0.00126267
33.0006	0.00126363
33.5006	0.00126839
34.0005	0.00126839
34.5005	0.00126649
35.0005	0.00126935
35.5005	0.00127602
36.0005	0.00128175
36.5005	0.00128842
37.0005	0.00129414
37.5005	0.00129224
38.0005	0.00130368
38.5005	0.00130273
39.0004	0.00131036
39.5005	0.00131703
40.0005	0.00131989
40.5005	0.00132657
41.0005	0.00133038
41.5005	0.00133229
42.0005	0.00133706
42.5005	0.00134183
43.0005	0.0013485
43.5005	0.00135709
44.0005	0.00136376
44.5005	0.00136853
45.0005	0.00138284
45.5005	0.0013857
46.0005	0.00139333
46.5004	0.00139905
47.0005	0.00141335
47.5005	0.00142575
48.0004	0.00143433
48.5004	0.00144292
49.0004	0.00145341
49.5004	0.00145913
50.0004	0.00147248
50.5004	0.00148106
51.0004	0.00149442
51.5004	0.00150681
52.0004	0.00152016
52.5004	0.00153638
53.0004	0.00155831
53.5004	0.00157357
54.0004	0.00159646
54.5004	0.00161839
55.0004	0.00164033
55.5004	0.00166512
56.0004	0.00169183
56.5004	0.00171376
57.0003	0.00174905
57.5004	0.00178052
58.0004	0.00181676
58.5004	0.001853
59.0004	0.00189019
59.5004	0.00192929
60.0004	0.00197031
60.5003	0.00201036
61.0003	0.00205232
61.5003	0.00210001
62.0003	0.00214483
62.5003	0.00219156
63.0003	0.00225164
63.5003	0.00232317
64.0003	0.00238039
64.5003	0.00245191
65.0003	0.00251772
65.5003	0.00259019
66.0003	0.00267507
66.5003	0.00275137
67.0003	0.00283815
67.5003	0.00293066
68.0003	0.00301839
68.5003	0.00311472
69.0003	0.00320341
69.5003	0.00328161
70.0003	0.00336076
70.5003	0.00346567
71.0003	0.00355817
71.5003	0.0036812
72.0003	0.00376512
72.5003	0.00385191
73.0002	0.0039368
73.5002	0.0040417
74.0002	0.00412181
74.5002	0.00416568
75.0002	0.0042229
75.5002	0.00425437
76.0002	0.0042868
76.5002	0.00430015
77.0001	0.00430682
77.5002	0.00430205
78.0002	0.00434116
78.5002	0.00428393
79.0002	0.00426868
79.5002	0.00424007
80.0002	0.0041838
80.5002	0.00411418
81.0002	0.00403884
81.5002	0.00399497
82.0002	0.00390914
82.5002	0.00378896
83.0002	0.00354291
83.5002	0.00311567
84.0002	0.00263502
84.5002	0.00210096
85.0002	0.00157452
85.5002	0.00111771
86.0001	0.000712398
86.5001	0.000488285
87.0001	0.000449182
87.5001	0.000455858
88.0001	0.000462534
88.4999	0.000476839
88.9996	0.000495914
89.5001	0.000519756
90.0001	0.000559811
90.5001	0.000599865
91.0001	0.000646595
91.5001	0.000694279
92.0001	0.00075436
92.5001	0.00081921
93.0001	0.000903133
93.5001	0.000985153
94.0001	0.00108243
94.5001	0.00117493
95.0001	0.00129033
95.5001	0.00141812
96.0001	0.00151921
96.5001	0.00161839
97.0001	0.00170804
97.5001	0.00164605
98.0001	0.00146199
98.5001	0.00122262
99	0.000973705
99.5	0.000710491
100	0.000432016
100.5	0.000161172
101	4.96E-05
101.5	3.15E-05
102	3.15E-05
102.5	3.53E-05
103	3.91E-05
103.499	4.48E-05
104	4.58E-05
104.5	5.05E-05
105	4.96E-05
105	5.05E-05
